flex_1,flex_2,flex_3,flex_4,flex_5,accel_x,accel_y,accel_z,gyro_x,gyro_y,gyro_z,label
2.06,1.82,3.0,3.3000000000000003,3.3000000000000003,0.0,0.0,0.0,0.0,0.0,0.0,K
2.03,1.8500000000000003,3.11,3.3000000000000003,3.3000000000000003,0.0,0.0,0.0,0.0,0.0,0.0,K
2.14,1.81,3.1300000000000003,3.3000000000000003,3.3000000000000003,0.0,0.0,0.0,0.0,0.0,0.0,K
2.03,1.69,3.1,3.3000000000000003,3.3000000000000003,0.0,0.0,0.0,0.0,0.0,0.0,K
2.06,1.79,3.1300000000000003,3.3000000000000003,3.3000000000000003,0.0,0.0,0.0,0.0,0.0,0.0,K
2.08,1.72,3.16,3.3000000000000003,3.3000000000000003,0.0,0.0,0.0,0.0,0.0,0.0,K
2.05,1.82,3.15,3.3000000000000003,3.3000000000000003,0.0,0.0,0.0,0.0,0.0,0.0,K
2.03,1.8399999999999999,3.2099999999999995,3.3000000000000003,3.3000000000000003,0.0,0.0,0.0,0.0,0.0,0.0,K
2.11,1.8399999999999999,3.2099999999999995,3.3000000000000003,3.3000000000000003,0.0,0.0,0.0,0.0,0.0,0.0,K
2.1,1.8000000000000003,3.1400000000000006,3.3000000000000003,3.3000000000000003,0.0,0.0,0.0,0.0,0.0,0.0,K
2.06,1.8000000000000003,3.1300000000000003,3.3000000000000003,3.3000000000000003,0.0,0.0,0.0,0.0,0.0,0.0,K
2.09,1.81,3.05,3.3000000000000003,3.3000000000000003,0.0,0.0,0.0,0.0,0.0,0.0,K
2.06,1.8399999999999999,3.07,3.3000000000000003,3.3000000000000003,0.0,0.0,0.0,0.0,0.0,0.0,K
2.1,1.8500000000000003,3.2300000000000004,3.3000000000000003,3.3000000000000003,0.0,0.0,0.0,0.0,0.0,0.0,K
2.21,1.72,3.07,3.3000000000000003,3.3000000000000003,0.0,0.0,0.0,0.0,0.0,0.0,K
2.06,1.8000000000000003,3.2199999999999998,3.3000000000000003,3.3000000000000003,0.0,0.0,0.0,0.0,0.0,0.0,K
2.11,1.81,3.2199999999999998,3.3000000000000003,3.3000000000000003,0.0,0.0,0.0,0.0,0.0,0.0,K
2.1,1.79,3.15,3.3000000000000003,3.3000000000000003,0.0,0.0,0.0,0.0,0.0,0.0,K
2.02,1.7500000000000002,3.06,3.3000000000000003,3.3000000000000003,0.0,0.0,0.0,0.0,0.0,0.0,K
2.06,1.73,3.2199999999999998,3.3000000000000003,3.3000000000000003,0.0,0.0,0.0,0.0,0.0,0.0,K
2.11,1.8399999999999999,3.2099999999999995,3.3000000000000003,3.3000000000000003,0.0,0.0,0.0,0.0,0.0,0.0,K
2.06,1.71,3.05,3.3000000000000003,3.3000000000000003,0.0,0.0,0.0,0.0,0.0,0.0,K
2.12,1.8000000000000003,3.15,3.3000000000000003,3.3000000000000003,0.0,0.0,0.0,0.0,0.0,0.0,K
2.05,1.79,3.1400000000000006,3.3000000000000003,3.3000000000000003,0.0,0.0,0.0,0.0,0.0,0.0,K
2.08,1.78,3.15,3.3000000000000003,3.3000000000000003,0.0,0.0,0.0,0.0,0.0,0.0,K
2.1,1.8500000000000003,3.2099999999999995,3.3000000000000003,3.3000000000000003,0.0,0.0,0.0,0.0,0.0,0.0,K
2.09,1.8500000000000003,3.2300000000000004,3.3000000000000003,3.3000000000000003,0.0,0.0,0.0,0.0,0.0,0.0,K
2.02,1.8399999999999999,3.2099999999999995,3.3000000000000003,3.3000000000000003,0.0,0.0,0.0,0.0,0.0,0.0,K
2.06,1.86,3.12,3.3000000000000003,3.3000000000000003,0.0,0.0,0.0,0.0,0.0,0.0,K
2.05,1.8000000000000003,3.03,3.3000000000000003,3.3000000000000003,0.0,0.0,0.0,0.0,0.0,0.0,K
2.03,1.7500000000000002,3.1400000000000006,3.3000000000000003,3.3000000000000003,0.0,0.0,0.0,0.0,0.0,0.0,K
2.05,1.8399999999999999,3.2099999999999995,3.3000000000000003,3.3000000000000003,0.0,0.0,0.0,0.0,0.0,0.0,K
2.03,1.77,3.1400000000000006,3.3000000000000003,3.3000000000000003,0.0,0.0,0.0,0.0,0.0,0.0,K
2.12,1.81,2.97,3.3000000000000003,3.3000000000000003,0.0,0.0,0.0,0.0,0.0,0.0,K
2.03,1.8399999999999999,3.12,3.3000000000000003,3.3000000000000003,0.0,0.0,0.0,0.0,0.0,0.0,K
2.06,1.82,3.2,3.3000000000000003,3.3000000000000003,0.0,0.0,0.0,0.0,0.0,0.0,K
2.01,1.81,3.12,3.3000000000000003,3.3000000000000003,0.0,0.0,0.0,0.0,0.0,0.0,K
2.02,1.8000000000000003,3.06,3.3000000000000003,3.3000000000000003,0.0,0.0,0.0,0.0,0.0,0.0,K
2.02,1.78,3.15,3.3000000000000003,3.3000000000000003,0.0,0.0,0.0,0.0,0.0,0.0,K
2.1,1.8000000000000003,3.1300000000000003,3.3000000000000003,3.3000000000000003,0.0,0.0,0.0,0.0,0.0,0.0,K
2.06,1.82,3.2,3.3000000000000003,3.3000000000000003,0.0,0.0,0.0,0.0,0.0,0.0,K
2.06,1.83,3.1,3.3000000000000003,3.3000000000000003,0.0,0.0,0.0,0.0,0.0,0.0,K
2.03,1.8000000000000003,3.2,3.3000000000000003,3.3000000000000003,0.0,0.0,0.0,0.0,0.0,0.0,K
2.04,1.79,3.08,3.3000000000000003,3.3000000000000003,0.0,0.0,0.0,0.0,0.0,0.0,K
2.11,1.81,3.19,3.3000000000000003,3.3000000000000003,0.0,0.0,0.0,0.0,0.0,0.0,K
2.1,1.8399999999999999,3.2,3.3000000000000003,3.3000000000000003,0.0,0.0,0.0,0.0,0.0,0.0,K
2.13,1.72,3.08,3.3000000000000003,3.3000000000000003,0.0,0.0,0.0,0.0,0.0,0.0,K
2.14,1.79,3.17,3.3000000000000003,3.3000000000000003,0.0,0.0,0.0,0.0,0.0,0.0,K
2.02,1.79,3.19,3.3000000000000003,3.3000000000000003,0.0,0.0,0.0,0.0,0.0,0.0,K
2.13,1.8399999999999999,3.2,3.3000000000000003,3.3000000000000003,0.0,0.0,0.0,0.0,0.0,0.0,K
2.06,1.79,3.18,3.3000000000000003,3.3000000000000003,0.0,0.0,0.0,0.0,0.0,0.0,K
2.06,1.79,2.93,3.3000000000000003,3.3000000000000003,0.0,0.0,0.0,0.0,0.0,0.0,K
2.04,1.8399999999999999,3.16,3.3000000000000003,3.3000000000000003,0.0,0.0,0.0,0.0,0.0,0.0,K
2.08,1.7399999999999998,2.97,3.3000000000000003,3.3000000000000003,0.0,0.0,0.0,0.0,0.0,0.0,K
2.06,1.6399999999999997,3.08,3.3000000000000003,3.3000000000000003,0.0,0.0,0.0,0.0,0.0,0.0,K
2.1,1.7000000000000002,3.02,3.3000000000000003,3.3000000000000003,0.0,0.0,0.0,0.0,0.0,0.0,K
2.04,1.8399999999999999,2.86,3.3000000000000003,3.3000000000000003,0.0,0.0,0.0,0.0,0.0,0.0,K
2.06,1.79,3.11,3.3000000000000003,3.3000000000000003,0.0,0.0,0.0,0.0,0.0,0.0,K
2.02,1.76,3.12,3.3000000000000003,3.3000000000000003,0.0,0.0,0.0,0.0,0.0,0.0,K
2.01,1.72,2.92,3.3000000000000003,3.3000000000000003,0.0,0.0,0.0,0.0,0.0,0.0,K
2.15,1.79,3.19,3.3000000000000003,3.3000000000000003,0.0,0.0,0.0,0.0,0.0,0.0,K
2.11,1.77,3.07,3.3000000000000003,3.3000000000000003,0.0,0.0,0.0,0.0,0.0,0.0,K
2.1,1.8399999999999999,3.2,3.3000000000000003,3.3000000000000003,0.0,0.0,0.0,0.0,0.0,0.0,K
2.13,1.7500000000000002,3.09,3.3000000000000003,3.3000000000000003,0.0,0.0,0.0,0.0,0.0,0.0,K
2.06,1.82,2.88,3.3000000000000003,3.3000000000000003,0.0,0.0,0.0,0.0,0.0,0.0,K
2.02,1.7399999999999998,2.94,3.3000000000000003,3.3000000000000003,0.0,0.0,0.0,0.0,0.0,0.0,K
2.11,1.7399999999999998,3.07,3.3000000000000003,3.3000000000000003,0.0,0.0,0.0,0.0,0.0,0.0,K
2.03,1.7000000000000002,3.18,3.3000000000000003,3.3000000000000003,0.0,0.0,0.0,0.0,0.0,0.0,K
2.02,1.7399999999999998,3.07,3.3000000000000003,3.3000000000000003,0.0,0.0,0.0,0.0,0.0,0.0,K
2.08,1.8399999999999999,3.2099999999999995,3.3000000000000003,3.3000000000000003,0.0,0.0,0.0,0.0,0.0,0.0,K
2.05,1.8399999999999999,3.2099999999999995,3.3000000000000003,3.3000000000000003,0.0,0.0,0.0,0.0,0.0,0.0,K
2.06,1.78,3.1400000000000006,3.3000000000000003,3.3000000000000003,0.0,0.0,0.0,0.0,0.0,0.0,K
2.1,1.73,2.91,3.3000000000000003,3.3000000000000003,0.0,0.0,0.0,0.0,0.0,0.0,K
2.15,1.8399999999999999,3.2099999999999995,3.3000000000000003,3.3000000000000003,0.0,0.0,0.0,0.0,0.0,0.0,K
2.02,1.73,3.1300000000000003,3.3000000000000003,3.3000000000000003,0.0,0.0,0.0,0.0,0.0,0.0,K
2.02,1.73,2.93,3.3000000000000003,3.3000000000000003,0.0,0.0,0.0,0.0,0.0,0.0,K
2.06,1.77,3.1,3.3000000000000003,3.3000000000000003,0.0,0.0,0.0,0.0,0.0,0.0,K
2.08,1.71,3.03,3.3000000000000003,3.3000000000000003,0.0,0.0,0.0,0.0,0.0,0.0,K
2.03,1.76,2.91,3.3000000000000003,3.3000000000000003,0.0,0.0,0.0,0.0,0.0,0.0,K
2.0,1.78,3.1300000000000003,3.3000000000000003,3.3000000000000003,0.0,0.0,0.0,0.0,0.0,0.0,K
2.03,1.76,2.96,3.3000000000000003,3.3000000000000003,0.0,0.0,0.0,0.0,0.0,0.0,K
2.05,1.78,3.19,3.3000000000000003,3.3000000000000003,0.0,0.0,0.0,0.0,0.0,0.0,K
2.06,1.83,3.16,3.3000000000000003,3.3000000000000003,0.0,0.0,0.0,0.0,0.0,0.0,K
2.09,1.81,3.19,3.3000000000000003,3.3000000000000003,0.0,0.0,0.0,0.0,0.0,0.0,K
2.09,1.66,2.96,3.3000000000000003,3.3000000000000003,0.0,0.0,0.0,0.0,0.0,0.0,K
2.06,1.82,3.19,3.3000000000000003,3.3000000000000003,0.0,0.0,0.0,0.0,0.0,0.0,K
2.06,1.76,3.17,3.3000000000000003,3.3000000000000003,0.0,0.0,0.0,0.0,0.0,0.0,K
2.1,1.7500000000000002,3.1300000000000003,3.3000000000000003,3.3000000000000003,0.0,0.0,0.0,0.0,0.0,0.0,K
2.0,1.77,3.1300000000000003,3.3000000000000003,3.3000000000000003,0.0,0.0,0.0,0.0,0.0,0.0,K
2.06,1.76,2.89,3.3000000000000003,3.3000000000000003,0.0,0.0,0.0,0.0,0.0,0.0,K
2.01,1.7399999999999998,3.1400000000000006,3.3000000000000003,3.3000000000000003,0.0,0.0,0.0,0.0,0.0,0.0,K
2.01,1.6500000000000001,3.1300000000000003,3.3000000000000003,3.3000000000000003,0.0,0.0,0.0,0.0,0.0,0.0,K
2.06,1.86,3.04,3.3000000000000003,3.3000000000000003,0.0,0.0,0.0,0.0,0.0,0.0,K
2.13,1.83,3.1,3.3000000000000003,3.3000000000000003,0.0,0.0,0.0,0.0,0.0,0.0,K
2.02,1.82,2.97,3.3000000000000003,3.3000000000000003,0.0,0.0,0.0,0.0,0.0,0.0,K
2.06,1.83,3.07,3.3000000000000003,3.3000000000000003,0.0,0.0,0.0,0.0,0.0,0.0,K
2.09,1.81,3.2300000000000004,3.3000000000000003,3.3000000000000003,0.0,0.0,0.0,0.0,0.0,0.0,K
2.1,1.81,3.2199999999999998,3.3000000000000003,3.3000000000000003,0.0,0.0,0.0,0.0,0.0,0.0,K
2.15,1.8000000000000003,3.08,3.3000000000000003,3.3000000000000003,0.0,0.0,0.0,0.0,0.0,0.0,K
2.03,1.8399999999999999,2.91,3.3000000000000003,3.3000000000000003,0.0,0.0,0.0,0.0,0.0,0.0,K
2.01,1.76,3.2099999999999995,3.3000000000000003,3.3000000000000003,0.0,0.0,0.0,0.0,0.0,0.0,K
2.01,1.8399999999999999,3.19,3.3000000000000003,3.3000000000000003,0.0,0.0,0.0,0.0,0.0,0.0,K
2.02,1.8000000000000003,3.2400000000000007,3.3000000000000003,3.3000000000000003,0.0,0.0,0.0,0.0,0.0,0.0,K
2.08,1.8000000000000003,3.15,3.3000000000000003,3.3000000000000003,0.0,0.0,0.0,0.0,0.0,0.0,K
2.09,1.78,3.1300000000000003,3.3000000000000003,3.3000000000000003,0.0,0.0,0.0,0.0,0.0,0.0,K
2.06,1.7500000000000002,3.2300000000000004,3.3000000000000003,3.3000000000000003,0.0,0.0,0.0,0.0,0.0,0.0,K
2.02,1.7399999999999998,3.1,3.3000000000000003,3.3000000000000003,0.0,0.0,0.0,0.0,0.0,0.0,K
2.01,1.67,3.1300000000000003,3.3000000000000003,3.3000000000000003,0.0,0.0,0.0,0.0,0.0,0.0,K
2.09,1.8000000000000003,3.1400000000000006,3.3000000000000003,3.3000000000000003,0.0,0.0,0.0,0.0,0.0,0.0,K
2.02,1.8399999999999999,3.12,3.3000000000000003,3.3000000000000003,0.0,0.0,0.0,0.0,0.0,0.0,K
2.09,1.77,3.15,3.3000000000000003,3.3000000000000003,0.0,0.0,0.0,0.0,0.0,0.0,K
2.09,1.76,3.07,3.3000000000000003,3.3000000000000003,0.0,0.0,0.0,0.0,0.0,0.0,K
2.06,1.73,3.17,3.3000000000000003,3.3000000000000003,0.0,0.0,0.0,0.0,0.0,0.0,K
2.02,1.81,3.18,3.3000000000000003,3.3000000000000003,0.0,0.0,0.0,0.0,0.0,0.0,K
2.1,1.77,3.1300000000000003,3.3000000000000003,3.3000000000000003,0.0,0.0,0.0,0.0,0.0,0.0,K
2.09,1.76,3.01,3.3000000000000003,3.3000000000000003,0.0,0.0,0.0,0.0,0.0,0.0,K
2.1,1.69,3.12,3.3000000000000003,3.3000000000000003,0.0,0.0,0.0,0.0,0.0,0.0,K
2.08,1.83,3.2300000000000004,3.3000000000000003,3.3000000000000003,0.0,0.0,0.0,0.0,0.0,0.0,K
2.1,1.79,3.2300000000000004,3.3000000000000003,3.3000000000000003,0.0,0.0,0.0,0.0,0.0,0.0,K
2.04,1.78,3.07,3.3000000000000003,3.3000000000000003,0.0,0.0,0.0,0.0,0.0,0.0,K
2.05,1.81,3.05,3.3000000000000003,3.3000000000000003,0.0,0.0,0.0,0.0,0.0,0.0,K
2.04,1.79,3.19,3.3000000000000003,3.3000000000000003,0.0,0.0,0.0,0.0,0.0,0.0,K
2.06,1.83,2.94,3.3000000000000003,3.3000000000000003,0.0,0.0,0.0,0.0,0.0,0.0,K
2.02,1.83,3.2,3.3000000000000003,3.3000000000000003,0.0,0.0,0.0,0.0,0.0,0.0,K
2.02,1.8399999999999999,3.12,3.3000000000000003,3.3000000000000003,0.0,0.0,0.0,0.0,0.0,0.0,K
2.09,1.83,3.2199999999999998,3.3000000000000003,3.3000000000000003,0.0,0.0,0.0,0.0,0.0,0.0,K
2.06,1.83,3.15,3.3000000000000003,3.3000000000000003,0.0,0.0,0.0,0.0,0.0,0.0,K
2.06,1.81,3.04,3.3000000000000003,3.3000000000000003,0.0,0.0,0.0,0.0,0.0,0.0,K
2.05,1.7399999999999998,3.2300000000000004,3.3000000000000003,3.3000000000000003,0.0,0.0,0.0,0.0,0.0,0.0,K
2.02,1.8399999999999999,3.15,3.3000000000000003,3.3000000000000003,0.0,0.0,0.0,0.0,0.0,0.0,K
2.18,1.83,3.18,3.3000000000000003,3.3000000000000003,0.0,0.0,0.0,0.0,0.0,0.0,K
2.06,1.7399999999999998,3.01,3.3000000000000003,3.3000000000000003,0.0,0.0,0.0,0.0,0.0,0.0,K
2.02,1.76,3.0,3.3000000000000003,3.3000000000000003,0.0,0.0,0.0,0.0,0.0,0.0,K
2.04,1.8000000000000003,3.11,3.3000000000000003,3.3000000000000003,0.0,0.0,0.0,0.0,0.0,0.0,K
2.01,1.83,3.06,3.3000000000000003,3.3000000000000003,0.0,0.0,0.0,0.0,0.0,0.0,K
2.05,1.83,3.2199999999999998,3.3000000000000003,3.3000000000000003,0.0,0.0,0.0,0.0,0.0,0.0,K
2.1,1.83,3.06,3.3000000000000003,3.3000000000000003,0.0,0.0,0.0,0.0,0.0,0.0,K
2.06,1.78,3.2300000000000004,3.3000000000000003,3.3000000000000003,0.0,0.0,0.0,0.0,0.0,0.0,K
2.06,1.63,3.07,3.3000000000000003,3.3000000000000003,0.0,0.0,0.0,0.0,0.0,0.0,K
2.05,1.83,3.1,3.3000000000000003,3.3000000000000003,0.0,0.0,0.0,0.0,0.0,0.0,K
2.0,1.63,3.17,3.3000000000000003,3.3000000000000003,0.0,0.0,0.0,0.0,0.0,0.0,K
2.01,1.82,3.11,3.3000000000000003,3.3000000000000003,0.0,0.0,0.0,0.0,0.0,0.0,K
2.1,1.8000000000000003,2.87,3.3000000000000003,3.3000000000000003,0.0,0.0,0.0,0.0,0.0,0.0,K
2.06,1.71,3.11,3.3000000000000003,3.3000000000000003,0.0,0.0,0.0,0.0,0.0,0.0,K
2.09,1.83,3.2,3.3000000000000003,3.3000000000000003,0.0,0.0,0.0,0.0,0.0,0.0,K
2.06,1.83,2.98,3.3000000000000003,3.3000000000000003,0.0,0.0,0.0,0.0,0.0,0.0,K
2.06,1.82,3.07,3.3000000000000003,3.3000000000000003,0.0,0.0,0.0,0.0,0.0,0.0,K
2.01,1.8000000000000003,3.2,3.3000000000000003,3.3000000000000003,0.0,0.0,0.0,0.0,0.0,0.0,K
2.1,1.76,2.95,3.3000000000000003,3.3000000000000003,0.0,0.0,0.0,0.0,0.0,0.0,K
2.05,1.78,3.11,3.3000000000000003,3.3000000000000003,0.0,0.0,0.0,0.0,0.0,0.0,K
2.09,1.79,3.07,3.3000000000000003,3.3000000000000003,0.0,0.0,0.0,0.0,0.0,0.0,K
2.09,1.76,3.04,3.3000000000000003,3.3000000000000003,0.0,0.0,0.0,0.0,0.0,0.0,K
2.06,1.78,3.17,3.3000000000000003,3.3000000000000003,0.0,0.0,0.0,0.0,0.0,0.0,K
2.04,1.71,3.11,3.3000000000000003,3.3000000000000003,0.0,0.0,0.0,0.0,0.0,0.0,K
2.09,1.83,3.18,3.3000000000000003,3.3000000000000003,0.0,0.0,0.0,0.0,0.0,0.0,K
2.05,1.69,3.18,3.3000000000000003,3.3000000000000003,0.0,0.0,0.0,0.0,0.0,0.0,K
2.05,1.79,3.1,3.3000000000000003,3.3000000000000003,0.0,0.0,0.0,0.0,0.0,0.0,K
2.1,1.78,3.12,3.3000000000000003,3.3000000000000003,0.0,0.0,0.0,0.0,0.0,0.0,K
2.04,1.78,3.12,3.3000000000000003,3.3000000000000003,0.0,0.0,0.0,0.0,0.0,0.0,K
2.09,1.78,2.96,3.3000000000000003,3.3000000000000003,0.0,0.0,0.0,0.0,0.0,0.0,K
2.09,1.82,3.18,3.3000000000000003,3.3000000000000003,0.0,0.0,0.0,0.0,0.0,0.0,K
2.01,1.82,3.08,3.3000000000000003,3.3000000000000003,0.0,0.0,0.0,0.0,0.0,0.0,K
2.01,1.72,3.05,3.3000000000000003,3.3000000000000003,0.0,0.0,0.0,0.0,0.0,0.0,K
2.0,1.77,3.16,3.3000000000000003,3.3000000000000003,0.0,0.0,0.0,0.0,0.0,0.0,K
2.01,1.7500000000000002,3.19,3.3000000000000003,3.3000000000000003,0.0,0.0,0.0,0.0,0.0,0.0,K
2.05,1.82,3.18,3.3000000000000003,3.3000000000000003,0.0,0.0,0.0,0.0,0.0,0.0,K
2.02,1.78,3.18,3.3000000000000003,3.3000000000000003,0.0,0.0,0.0,0.0,0.0,0.0,K
2.09,1.83,3.2,3.3000000000000003,3.3000000000000003,0.0,0.0,0.0,0.0,0.0,0.0,K
2.06,1.69,3.17,3.3000000000000003,3.3000000000000003,0.0,0.0,0.0,0.0,0.0,0.0,K
2.09,1.8399999999999999,3.2099999999999995,3.3000000000000003,3.3000000000000003,0.0,0.0,0.0,0.0,0.0,0.0,K
2.06,1.87,3.16,3.3000000000000003,3.3000000000000003,0.0,0.0,0.0,0.0,0.0,0.0,K
2.03,1.81,3.12,3.3000000000000003,3.3000000000000003,0.0,0.0,0.0,0.0,0.0,0.0,K
2.1,1.79,3.2199999999999998,3.3000000000000003,3.3000000000000003,0.0,0.0,0.0,0.0,0.0,0.0,K
2.06,1.7399999999999998,2.99,3.3000000000000003,3.3000000000000003,0.0,0.0,0.0,0.0,0.0,0.0,K
2.01,1.72,3.12,3.3000000000000003,3.3000000000000003,0.0,0.0,0.0,0.0,0.0,0.0,K
2.0,1.81,3.16,3.3000000000000003,3.3000000000000003,0.0,0.0,0.0,0.0,0.0,0.0,K
2.06,1.72,3.18,3.3000000000000003,3.3000000000000003,0.0,0.0,0.0,0.0,0.0,0.0,K
2.08,1.83,3.2099999999999995,3.3000000000000003,3.3000000000000003,0.0,0.0,0.0,0.0,0.0,0.0,K
2.1,1.76,3.1,3.3000000000000003,3.3000000000000003,0.0,0.0,0.0,0.0,0.0,0.0,K
2.06,1.79,3.2099999999999995,3.3000000000000003,3.3000000000000003,0.0,0.0,0.0,0.0,0.0,0.0,K
2.06,1.76,3.2,3.3000000000000003,3.3000000000000003,0.0,0.0,0.0,0.0,0.0,0.0,K
2.02,1.8399999999999999,3.1400000000000006,3.3000000000000003,3.3000000000000003,0.0,0.0,0.0,0.0,0.0,0.0,K
2.15,1.8000000000000003,3.07,3.3000000000000003,3.3000000000000003,0.0,0.0,0.0,0.0,0.0,0.0,K
2.06,1.83,3.2,3.3000000000000003,3.3000000000000003,0.0,0.0,0.0,0.0,0.0,0.0,K
2.02,1.72,3.0,3.3000000000000003,3.3000000000000003,0.0,0.0,0.0,0.0,0.0,0.0,K
2.15,1.7500000000000002,2.92,3.3000000000000003,3.3000000000000003,0.0,0.0,0.0,0.0,0.0,0.0,K
2.06,1.83,3.07,3.3000000000000003,3.3000000000000003,0.0,0.0,0.0,0.0,0.0,0.0,K
2.05,1.76,3.17,3.3000000000000003,3.3000000000000003,0.0,0.0,0.0,0.0,0.0,0.0,K
2.13,1.83,3.1,3.3000000000000003,3.3000000000000003,0.0,0.0,0.0,0.0,0.0,0.0,K
2.06,1.77,2.98,3.3000000000000003,3.3000000000000003,0.0,0.0,0.0,0.0,0.0,0.0,K
2.02,1.7399999999999998,3.16,3.3000000000000003,3.3000000000000003,0.0,0.0,0.0,0.0,0.0,0.0,K
2.06,1.76,2.94,3.3000000000000003,3.3000000000000003,0.0,0.0,0.0,0.0,0.0,0.0,K
2.03,1.73,3.0,3.3000000000000003,3.3000000000000003,0.0,0.0,0.0,0.0,0.0,0.0,K
2.06,1.71,3.07,3.3000000000000003,3.3000000000000003,0.0,0.0,0.0,0.0,0.0,0.0,K
2.06,1.77,3.06,3.3000000000000003,3.3000000000000003,0.0,0.0,0.0,0.0,0.0,0.0,K
2.01,1.7399999999999998,3.11,3.3000000000000003,3.3000000000000003,0.0,0.0,0.0,0.0,0.0,0.0,K
2.09,1.8399999999999999,3.2300000000000004,3.3000000000000003,3.3000000000000003,0.0,0.0,0.0,0.0,0.0,0.0,K
2.06,1.76,2.98,3.3000000000000003,3.3000000000000003,0.0,0.0,0.0,0.0,0.0,0.0,K
2.1,1.68,2.98,3.3000000000000003,3.3000000000000003,0.0,0.0,0.0,0.0,0.0,0.0,K
2.04,1.71,3.1400000000000006,3.3000000000000003,3.3000000000000003,0.0,0.0,0.0,0.0,0.0,0.0,K
2.01,1.7500000000000002,3.06,3.3000000000000003,3.3000000000000003,0.0,0.0,0.0,0.0,0.0,0.0,K
2.09,1.81,3.17,3.3000000000000003,3.3000000000000003,0.0,0.0,0.0,0.0,0.0,0.0,K
2.09,1.83,3.2199999999999998,3.3000000000000003,3.3000000000000003,0.0,0.0,0.0,0.0,0.0,0.0,K
2.06,1.8399999999999999,2.97,3.3000000000000003,3.3000000000000003,0.0,0.0,0.0,0.0,0.0,0.0,K
2.08,1.8000000000000003,3.2799999999999994,3.3000000000000003,3.3000000000000003,0.0,0.0,0.0,0.0,0.0,0.0,K
2.01,1.78,3.08,3.3000000000000003,3.3000000000000003,0.0,0.0,0.0,0.0,0.0,0.0,K
2.09,1.8399999999999999,3.2199999999999998,3.3000000000000003,3.3000000000000003,0.0,0.0,0.0,0.0,0.0,0.0,K
2.02,1.73,3.02,3.3000000000000003,3.3000000000000003,0.0,0.0,0.0,0.0,0.0,0.0,K
2.06,1.79,3.04,3.3000000000000003,3.3000000000000003,0.0,0.0,0.0,0.0,0.0,0.0,K
2.1,1.83,3.01,3.3000000000000003,3.3000000000000003,0.0,0.0,0.0,0.0,0.0,0.0,K
2.01,1.82,3.15,3.3000000000000003,3.3000000000000003,0.0,0.0,0.0,0.0,0.0,0.0,K
2.18,1.82,3.2099999999999995,3.3000000000000003,3.3000000000000003,0.0,0.0,0.0,0.0,0.0,0.0,K
2.05,1.83,3.2199999999999998,3.3000000000000003,3.3000000000000003,0.0,0.0,0.0,0.0,0.0,0.0,K
2.09,1.67,3.01,3.3000000000000003,3.3000000000000003,0.0,0.0,0.0,0.0,0.0,0.0,K
2.08,1.83,3.2199999999999998,3.3000000000000003,3.3000000000000003,0.0,0.0,0.0,0.0,0.0,0.0,K
2.01,1.79,3.2400000000000007,3.3000000000000003,3.3000000000000003,0.0,0.0,0.0,0.0,0.0,0.0,K
2.05,1.71,3.2,3.3000000000000003,3.3000000000000003,0.0,0.0,0.0,0.0,0.0,0.0,K
2.06,1.83,2.93,3.3000000000000003,3.3000000000000003,0.0,0.0,0.0,0.0,0.0,0.0,K
2.06,1.82,3.06,3.3000000000000003,3.3000000000000003,0.0,0.0,0.0,0.0,0.0,0.0,K
2.06,1.82,3.19,3.3000000000000003,3.3000000000000003,0.0,0.0,0.0,0.0,0.0,0.0,K
2.05,1.71,3.25,3.3000000000000003,3.3000000000000003,0.0,0.0,0.0,0.0,0.0,0.0,K
2.05,1.79,2.88,3.3000000000000003,3.3000000000000003,0.0,0.0,0.0,0.0,0.0,0.0,K
2.06,1.77,3.06,3.3000000000000003,3.3000000000000003,0.0,0.0,0.0,0.0,0.0,0.0,K
2.09,1.8399999999999999,3.15,3.3000000000000003,3.3000000000000003,0.0,0.0,0.0,0.0,0.0,0.0,K
2.09,1.86,3.11,3.3000000000000003,3.3000000000000003,0.0,0.0,0.0,0.0,0.0,0.0,K
2.12,1.8399999999999999,3.08,3.3000000000000003,3.3000000000000003,0.0,0.0,0.0,0.0,0.0,0.0,K
2.04,1.81,3.2099999999999995,3.3000000000000003,3.3000000000000003,0.0,0.0,0.0,0.0,0.0,0.0,K
2.06,1.83,3.17,3.3000000000000003,3.3000000000000003,0.0,0.0,0.0,0.0,0.0,0.0,K
2.1,1.8000000000000003,3.2300000000000004,3.3000000000000003,3.3000000000000003,0.0,0.0,0.0,0.0,0.0,0.0,K
2.1,1.8500000000000003,3.2300000000000004,3.3000000000000003,3.3000000000000003,0.0,0.0,0.0,0.0,0.0,0.0,K
2.1,1.8000000000000003,3.12,3.3000000000000003,3.3000000000000003,0.0,0.0,0.0,0.0,0.0,0.0,K
2.12,1.77,2.99,3.3000000000000003,3.3000000000000003,0.0,0.0,0.0,0.0,0.0,0.0,K
2.06,1.81,3.16,3.3000000000000003,3.3000000000000003,0.0,0.0,0.0,0.0,0.0,0.0,K
2.09,1.86,2.88,3.3000000000000003,3.3000000000000003,0.0,0.0,0.0,0.0,0.0,0.0,K
2.06,1.77,3.1,3.3000000000000003,3.3000000000000003,0.0,0.0,0.0,0.0,0.0,0.0,K
2.11,1.8399999999999999,3.18,3.3000000000000003,3.3000000000000003,0.0,0.0,0.0,0.0,0.0,0.0,K
2.06,1.8399999999999999,3.12,3.3000000000000003,3.3000000000000003,0.0,0.0,0.0,0.0,0.0,0.0,K
2.1,1.8500000000000003,3.15,3.3000000000000003,3.3000000000000003,0.0,0.0,0.0,0.0,0.0,0.0,K
2.05,1.83,3.19,3.3000000000000003,3.3000000000000003,0.0,0.0,0.0,0.0,0.0,0.0,K
2.06,1.67,3.09,3.3000000000000003,3.3000000000000003,0.0,0.0,0.0,0.0,0.0,0.0,K
2.09,1.8500000000000003,3.2199999999999998,3.3000000000000003,3.3000000000000003,0.0,0.0,0.0,0.0,0.0,0.0,K
2.1,1.7000000000000002,3.2300000000000004,3.3000000000000003,3.3000000000000003,0.0,0.0,0.0,0.0,0.0,0.0,K
2.03,1.83,3.2199999999999998,3.3000000000000003,3.3000000000000003,0.0,0.0,0.0,0.0,0.0,0.0,K
2.05,1.79,3.17,3.3000000000000003,3.3000000000000003,0.0,0.0,0.0,0.0,0.0,0.0,K
2.09,1.81,3.0,3.3000000000000003,3.3000000000000003,0.0,0.0,0.0,0.0,0.0,0.0,K
2.1,1.79,3.09,3.3000000000000003,3.3000000000000003,0.0,0.0,0.0,0.0,0.0,0.0,K
2.09,1.7000000000000002,3.16,3.3000000000000003,3.3000000000000003,0.0,0.0,0.0,0.0,0.0,0.0,K
2.11,1.81,3.2099999999999995,3.3000000000000003,3.3000000000000003,0.0,0.0,0.0,0.0,0.0,0.0,K
2.11,1.79,3.2099999999999995,3.3000000000000003,3.3000000000000003,0.0,0.0,0.0,0.0,0.0,0.0,K
2.02,1.7500000000000002,3.16,3.3000000000000003,3.3000000000000003,0.0,0.0,0.0,0.0,0.0,0.0,K
2.06,1.7500000000000002,3.07,3.3000000000000003,3.3000000000000003,0.0,0.0,0.0,0.0,0.0,0.0,K
2.13,1.86,3.2099999999999995,3.3000000000000003,3.3000000000000003,0.0,0.0,0.0,0.0,0.0,0.0,K
2.06,1.8500000000000003,3.17,3.3000000000000003,3.3000000000000003,0.0,0.0,0.0,0.0,0.0,0.0,K
2.09,1.77,3.2199999999999998,3.3000000000000003,3.3000000000000003,0.0,0.0,0.0,0.0,0.0,0.0,K
2.06,1.8500000000000003,3.2199999999999998,3.3000000000000003,3.3000000000000003,0.0,0.0,0.0,0.0,0.0,0.0,K
2.02,1.8000000000000003,3.2099999999999995,3.3000000000000003,3.3000000000000003,0.0,0.0,0.0,0.0,0.0,0.0,K
2.09,1.81,3.2199999999999998,3.3000000000000003,3.3000000000000003,0.0,0.0,0.0,0.0,0.0,0.0,K
2.11,1.86,3.12,3.3000000000000003,3.3000000000000003,0.0,0.0,0.0,0.0,0.0,0.0,K
2.12,1.72,3.2,3.3000000000000003,3.3000000000000003,0.0,0.0,0.0,0.0,0.0,0.0,K
2.08,1.79,3.2099999999999995,3.3000000000000003,3.3000000000000003,0.0,0.0,0.0,0.0,0.0,0.0,K
2.06,1.8000000000000003,3.1400000000000006,3.3000000000000003,3.3000000000000003,0.0,0.0,0.0,0.0,0.0,0.0,K
2.12,1.8500000000000003,3.2099999999999995,3.3000000000000003,3.3000000000000003,0.0,0.0,0.0,0.0,0.0,0.0,K
2.09,1.8000000000000003,3.08,3.3000000000000003,3.3000000000000003,0.0,0.0,0.0,0.0,0.0,0.0,K
2.05,1.76,3.2199999999999998,3.3000000000000003,3.3000000000000003,0.0,0.0,0.0,0.0,0.0,0.0,K
2.09,1.77,3.07,3.3000000000000003,3.3000000000000003,0.0,0.0,0.0,0.0,0.0,0.0,K
2.06,1.8000000000000003,3.09,3.3000000000000003,3.3000000000000003,0.0,0.0,0.0,0.0,0.0,0.0,K
2.09,1.86,3.1400000000000006,3.3000000000000003,3.3000000000000003,0.0,0.0,0.0,0.0,0.0,0.0,K
2.04,1.81,3.15,3.3000000000000003,3.3000000000000003,0.0,0.0,0.0,0.0,0.0,0.0,K
2.05,1.83,3.04,3.3000000000000003,3.3000000000000003,0.0,0.0,0.0,0.0,0.0,0.0,K
2.11,1.78,3.12,3.3000000000000003,3.3000000000000003,0.0,0.0,0.0,0.0,0.0,0.0,K
2.06,1.69,3.15,3.3000000000000003,3.3000000000000003,0.0,0.0,0.0,0.0,0.0,0.0,K
2.16,1.81,3.2199999999999998,3.3000000000000003,3.3000000000000003,0.0,0.0,0.0,0.0,0.0,0.0,K
2.09,1.73,3.1300000000000003,3.3000000000000003,3.3000000000000003,0.0,0.0,0.0,0.0,0.0,0.0,K
2.1,1.81,3.2199999999999998,3.3000000000000003,3.3000000000000003,0.0,0.0,0.0,0.0,0.0,0.0,K
2.05,1.8399999999999999,3.2300000000000004,3.3000000000000003,3.3000000000000003,0.0,0.0,0.0,0.0,0.0,0.0,K
2.02,1.8500000000000003,2.89,3.3000000000000003,3.3000000000000003,0.0,0.0,0.0,0.0,0.0,0.0,K
2.1,1.69,3.2,3.3000000000000003,3.3000000000000003,0.0,0.0,0.0,0.0,0.0,0.0,K
2.03,1.8500000000000003,3.06,3.3000000000000003,3.3000000000000003,0.0,0.0,0.0,0.0,0.0,0.0,K
2.06,1.83,3.2199999999999998,3.3000000000000003,3.3000000000000003,0.0,0.0,0.0,0.0,0.0,0.0,K
2.06,1.81,2.98,3.3000000000000003,3.3000000000000003,0.0,0.0,0.0,0.0,0.0,0.0,K
2.11,1.8000000000000003,3.26,3.3000000000000003,3.3000000000000003,0.0,0.0,0.0,0.0,0.0,0.0,K
2.08,1.78,3.2099999999999995,3.3000000000000003,3.3000000000000003,0.0,0.0,0.0,0.0,0.0,0.0,K
2.09,1.81,2.91,3.3000000000000003,3.3000000000000003,0.0,0.0,0.0,0.0,0.0,0.0,K
2.03,1.82,3.1300000000000003,3.3000000000000003,3.3000000000000003,0.0,0.0,0.0,0.0,0.0,0.0,K
2.12,1.8000000000000003,3.12,3.3000000000000003,3.3000000000000003,0.0,0.0,0.0,0.0,0.0,0.0,K
2.09,1.8399999999999999,3.12,3.3000000000000003,3.3000000000000003,0.0,0.0,0.0,0.0,0.0,0.0,K
2.02,1.7000000000000002,3.1300000000000003,3.3000000000000003,3.3000000000000003,0.0,0.0,0.0,0.0,0.0,0.0,K
2.12,1.8500000000000003,3.11,3.3000000000000003,3.3000000000000003,0.0,0.0,0.0,0.0,0.0,0.0,K
2.1,1.92,3.2199999999999998,3.3000000000000003,3.3000000000000003,0.0,0.0,0.0,0.0,0.0,0.0,K
2.1,1.8500000000000003,3.2099999999999995,3.3000000000000003,3.3000000000000003,0.0,0.0,0.0,0.0,0.0,0.0,K
2.17,1.8000000000000003,3.1300000000000003,3.3000000000000003,3.3000000000000003,0.0,0.0,0.0,0.0,0.0,0.0,K
2.09,1.8500000000000003,3.2199999999999998,3.3000000000000003,3.3000000000000003,0.0,0.0,0.0,0.0,0.0,0.0,K
2.03,1.8000000000000003,3.2099999999999995,3.3000000000000003,3.3000000000000003,0.0,0.0,0.0,0.0,0.0,0.0,K
2.11,1.82,3.08,3.3000000000000003,3.3000000000000003,0.0,0.0,0.0,0.0,0.0,0.0,K
2.2,1.7500000000000002,3.11,3.3000000000000003,3.3000000000000003,0.0,0.0,0.0,0.0,0.0,0.0,K
2.09,1.86,3.15,3.3000000000000003,3.3000000000000003,0.0,0.0,0.0,0.0,0.0,0.0,K
2.01,1.77,2.89,3.3000000000000003,3.3000000000000003,0.0,0.0,0.0,0.0,0.0,0.0,K
2.1,1.79,3.1400000000000006,3.3000000000000003,3.3000000000000003,0.0,0.0,0.0,0.0,0.0,0.0,K
2.11,1.86,3.2099999999999995,3.3000000000000003,3.3000000000000003,0.0,0.0,0.0,0.0,0.0,0.0,K
2.11,1.7399999999999998,3.1300000000000003,3.3000000000000003,3.3000000000000003,0.0,0.0,0.0,0.0,0.0,0.0,K
2.06,1.82,3.29,3.3000000000000003,3.3000000000000003,0.0,0.0,0.0,0.0,0.0,0.0,K
2.1,1.81,3.12,3.3000000000000003,3.3000000000000003,0.0,0.0,0.0,0.0,0.0,0.0,K
2.04,1.81,3.11,3.3000000000000003,3.3000000000000003,0.0,0.0,0.0,0.0,0.0,0.0,K
2.06,1.8500000000000003,3.2300000000000004,3.3000000000000003,3.3000000000000003,0.0,0.0,0.0,0.0,0.0,0.0,K
2.11,1.79,2.88,3.3000000000000003,3.3000000000000003,0.0,0.0,0.0,0.0,0.0,0.0,K
2.06,1.8500000000000003,3.06,3.3000000000000003,3.3000000000000003,0.0,0.0,0.0,0.0,0.0,0.0,K
2.02,1.81,3.18,3.3000000000000003,3.3000000000000003,0.0,0.0,0.0,0.0,0.0,0.0,K
2.06,1.8399999999999999,3.2300000000000004,3.3000000000000003,3.3000000000000003,0.0,0.0,0.0,0.0,0.0,0.0,K
2.09,1.8000000000000003,3.1300000000000003,3.3000000000000003,3.3000000000000003,0.0,0.0,0.0,0.0,0.0,0.0,K
2.06,1.78,3.09,3.3000000000000003,3.3000000000000003,0.0,0.0,0.0,0.0,0.0,0.0,K
2.06,1.82,3.1300000000000003,3.3000000000000003,3.3000000000000003,0.0,0.0,0.0,0.0,0.0,0.0,K
2.05,1.83,3.2099999999999995,3.3000000000000003,3.3000000000000003,0.0,0.0,0.0,0.0,0.0,0.0,K
2.09,1.78,3.2400000000000007,3.3000000000000003,3.3000000000000003,0.0,0.0,0.0,0.0,0.0,0.0,K
2.13,1.82,3.2099999999999995,3.3000000000000003,3.3000000000000003,0.0,0.0,0.0,0.0,0.0,0.0,K
2.03,1.82,3.2199999999999998,3.3000000000000003,3.3000000000000003,0.0,0.0,0.0,0.0,0.0,0.0,K
2.06,1.78,3.0,3.3000000000000003,3.3000000000000003,0.0,0.0,0.0,0.0,0.0,0.0,K
2.06,1.78,3.2099999999999995,3.3000000000000003,3.3000000000000003,0.0,0.0,0.0,0.0,0.0,0.0,K
2.09,1.66,3.1400000000000006,3.3000000000000003,3.3000000000000003,0.0,0.0,0.0,0.0,0.0,0.0,K
2.04,1.78,3.02,3.3000000000000003,3.3000000000000003,0.0,0.0,0.0,0.0,0.0,0.0,K
2.11,1.8000000000000003,2.99,3.3000000000000003,3.3000000000000003,0.0,0.0,0.0,0.0,0.0,0.0,K
2.06,1.83,3.2400000000000007,3.3000000000000003,3.3000000000000003,0.0,0.0,0.0,0.0,0.0,0.0,K
2.11,1.7000000000000002,3.2199999999999998,3.3000000000000003,3.3000000000000003,0.0,0.0,0.0,0.0,0.0,0.0,K
2.06,1.79,3.09,3.3000000000000003,3.3000000000000003,0.0,0.0,0.0,0.0,0.0,0.0,K
2.02,1.72,2.96,3.3000000000000003,3.3000000000000003,0.0,0.0,0.0,0.0,0.0,0.0,K
2.06,1.83,2.96,3.3000000000000003,3.3000000000000003,0.0,0.0,0.0,0.0,0.0,0.0,K
2.02,1.6500000000000001,3.2199999999999998,3.3000000000000003,3.3000000000000003,0.0,0.0,0.0,0.0,0.0,0.0,K
2.13,1.8399999999999999,3.02,3.3000000000000003,3.3000000000000003,0.0,0.0,0.0,0.0,0.0,0.0,K
2.04,1.76,3.05,3.3000000000000003,3.3000000000000003,0.0,0.0,0.0,0.0,0.0,0.0,K
2.12,1.8399999999999999,3.15,3.3000000000000003,3.3000000000000003,0.0,0.0,0.0,0.0,0.0,0.0,K
2.09,1.86,3.18,3.3000000000000003,3.3000000000000003,0.0,0.0,0.0,0.0,0.0,0.0,K
2.06,1.82,3.2300000000000004,3.3000000000000003,3.3000000000000003,0.0,0.0,0.0,0.0,0.0,0.0,K
2.02,1.7399999999999998,3.2199999999999998,3.3000000000000003,3.3000000000000003,0.0,0.0,0.0,0.0,0.0,0.0,K
2.1,1.78,3.1300000000000003,3.3000000000000003,3.3000000000000003,0.0,0.0,0.0,0.0,0.0,0.0,K
2.05,1.8399999999999999,3.2199999999999998,3.3000000000000003,3.3000000000000003,0.0,0.0,0.0,0.0,0.0,0.0,K
2.11,1.8000000000000003,3.2,3.3000000000000003,3.3000000000000003,0.0,0.0,0.0,0.0,0.0,0.0,K
2.09,1.76,3.15,3.3000000000000003,3.3000000000000003,0.0,0.0,0.0,0.0,0.0,0.0,K
2.08,1.8500000000000003,3.2199999999999998,3.3000000000000003,3.3000000000000003,0.0,0.0,0.0,0.0,0.0,0.0,K
2.03,1.79,3.18,3.3000000000000003,3.3000000000000003,0.0,0.0,0.0,0.0,0.0,0.0,K
2.1,1.81,3.2199999999999998,3.3000000000000003,3.3000000000000003,0.0,0.0,0.0,0.0,0.0,0.0,K
2.05,1.77,3.2199999999999998,3.3000000000000003,3.3000000000000003,0.0,0.0,0.0,0.0,0.0,0.0,K
2.03,1.81,3.2099999999999995,3.3000000000000003,3.3000000000000003,0.0,0.0,0.0,0.0,0.0,0.0,K
2.06,1.8500000000000003,3.1300000000000003,3.3000000000000003,3.3000000000000003,0.0,0.0,0.0,0.0,0.0,0.0,K
2.04,1.82,3.19,3.3000000000000003,3.3000000000000003,0.0,0.0,0.0,0.0,0.0,0.0,K
2.03,1.7399999999999998,3.15,3.3000000000000003,3.3000000000000003,0.0,0.0,0.0,0.0,0.0,0.0,K
2.05,1.81,3.1400000000000006,3.3000000000000003,3.3000000000000003,0.0,0.0,0.0,0.0,0.0,0.0,K
2.1,1.81,3.2300000000000004,3.3000000000000003,3.3000000000000003,0.0,0.0,0.0,0.0,0.0,0.0,K
2.1,1.8000000000000003,3.03,3.3000000000000003,3.3000000000000003,0.0,0.0,0.0,0.0,0.0,0.0,K
2.04,1.78,3.11,3.3000000000000003,3.3000000000000003,0.0,0.0,0.0,0.0,0.0,0.0,K
2.01,1.73,2.98,3.3000000000000003,3.3000000000000003,0.0,0.0,0.0,0.0,0.0,0.0,K
2.11,1.71,3.2300000000000004,3.3000000000000003,3.3000000000000003,0.0,0.0,0.0,0.0,0.0,0.0,K
2.1,1.83,3.17,3.3000000000000003,3.3000000000000003,0.0,0.0,0.0,0.0,0.0,0.0,K
2.1,1.81,3.04,3.3000000000000003,3.3000000000000003,0.0,0.0,0.0,0.0,0.0,0.0,K
2.05,1.79,3.1,3.3000000000000003,3.3000000000000003,0.0,0.0,0.0,0.0,0.0,0.0,K
2.03,1.73,3.02,3.3000000000000003,3.3000000000000003,0.0,0.0,0.0,0.0,0.0,0.0,K
2.13,1.81,3.2400000000000007,3.3000000000000003,3.3000000000000003,0.0,0.0,0.0,0.0,0.0,0.0,K
2.08,1.83,3.2,3.3000000000000003,3.3000000000000003,0.0,0.0,0.0,0.0,0.0,0.0,K
2.1,1.81,3.11,3.3000000000000003,3.3000000000000003,0.0,0.0,0.0,0.0,0.0,0.0,K
2.1,1.8399999999999999,3.17,3.3000000000000003,3.3000000000000003,0.0,0.0,0.0,0.0,0.0,0.0,K
2.1,1.8000000000000003,3.1400000000000006,3.3000000000000003,3.3000000000000003,0.0,0.0,0.0,0.0,0.0,0.0,K
2.08,1.82,2.93,3.3000000000000003,3.3000000000000003,0.0,0.0,0.0,0.0,0.0,0.0,K
2.06,1.79,3.2099999999999995,3.3000000000000003,3.3000000000000003,0.0,0.0,0.0,0.0,0.0,0.0,K
2.13,1.81,3.26,3.3000000000000003,3.3000000000000003,0.0,0.0,0.0,0.0,0.0,0.0,K
2.01,1.66,3.1,3.3000000000000003,3.3000000000000003,0.0,0.0,0.0,0.0,0.0,0.0,K
2.03,1.86,2.97,3.3000000000000003,3.3000000000000003,0.0,0.0,0.0,0.0,0.0,0.0,K
2.09,1.69,3.2199999999999998,3.3000000000000003,3.3000000000000003,0.0,0.0,0.0,0.0,0.0,0.0,K
2.02,1.66,3.15,3.3000000000000003,3.3000000000000003,0.0,0.0,0.0,0.0,0.0,0.0,K
2.09,1.81,3.06,3.3000000000000003,3.3000000000000003,0.0,0.0,0.0,0.0,0.0,0.0,K
2.11,1.8500000000000003,3.2300000000000004,3.3000000000000003,3.3000000000000003,0.0,0.0,0.0,0.0,0.0,0.0,K
2.08,1.82,3.2300000000000004,3.3000000000000003,3.3000000000000003,0.0,0.0,0.0,0.0,0.0,0.0,K
2.09,1.8000000000000003,3.1300000000000003,3.3000000000000003,3.3000000000000003,0.0,0.0,0.0,0.0,0.0,0.0,K
2.16,1.82,3.15,3.3000000000000003,3.3000000000000003,0.0,0.0,0.0,0.0,0.0,0.0,K
2.09,1.83,3.06,3.3000000000000003,3.3000000000000003,0.0,0.0,0.0,0.0,0.0,0.0,K
2.13,1.81,3.16,3.3000000000000003,3.3000000000000003,0.0,0.0,0.0,0.0,0.0,0.0,K
2.05,1.81,3.1300000000000003,3.3000000000000003,3.3000000000000003,0.0,0.0,0.0,0.0,0.0,0.0,K
2.15,1.83,3.2,3.3000000000000003,3.3000000000000003,0.0,0.0,0.0,0.0,0.0,0.0,K
2.14,1.87,3.03,3.3000000000000003,3.3000000000000003,0.0,0.0,0.0,0.0,0.0,0.0,K
2.06,1.8000000000000003,2.87,3.3000000000000003,3.3000000000000003,0.0,0.0,0.0,0.0,0.0,0.0,K
2.1,1.72,2.88,3.3000000000000003,3.3000000000000003,0.0,0.0,0.0,0.0,0.0,0.0,K
2.13,1.87,3.11,3.3000000000000003,3.3000000000000003,0.0,0.0,0.0,0.0,0.0,0.0,K
2.13,1.81,3.16,3.3000000000000003,3.3000000000000003,0.0,0.0,0.0,0.0,0.0,0.0,K
2.1,1.78,3.12,3.3000000000000003,3.3000000000000003,0.0,0.0,0.0,0.0,0.0,0.0,K
2.15,1.87,3.2,3.3000000000000003,3.3000000000000003,0.0,0.0,0.0,0.0,0.0,0.0,K
2.12,1.87,3.2,3.3000000000000003,3.3000000000000003,0.0,0.0,0.0,0.0,0.0,0.0,K
2.13,1.72,3.07,3.3000000000000003,3.3000000000000003,0.0,0.0,0.0,0.0,0.0,0.0,K
2.06,1.86,2.91,3.3000000000000003,3.3000000000000003,0.0,0.0,0.0,0.0,0.0,0.0,K
2.1,1.77,3.18,3.3000000000000003,3.3000000000000003,0.0,0.0,0.0,0.0,0.0,0.0,K
2.16,1.86,3.04,3.3000000000000003,3.3000000000000003,0.0,0.0,0.0,0.0,0.0,0.0,K
2.06,1.8399999999999999,3.2099999999999995,3.3000000000000003,3.3000000000000003,0.0,0.0,0.0,0.0,0.0,0.0,K
2.13,1.8000000000000003,3.05,3.3000000000000003,3.3000000000000003,0.0,0.0,0.0,0.0,0.0,0.0,K
2.06,1.8500000000000003,3.2,3.3000000000000003,3.3000000000000003,0.0,0.0,0.0,0.0,0.0,0.0,K
2.13,1.81,2.94,3.3000000000000003,3.3000000000000003,0.0,0.0,0.0,0.0,0.0,0.0,K
2.09,1.78,3.11,3.3000000000000003,3.3000000000000003,0.0,0.0,0.0,0.0,0.0,0.0,K
2.11,1.8000000000000003,3.2,3.3000000000000003,3.3000000000000003,0.0,0.0,0.0,0.0,0.0,0.0,K
2.13,1.8399999999999999,3.1300000000000003,3.3000000000000003,3.3000000000000003,0.0,0.0,0.0,0.0,0.0,0.0,K
2.12,1.8399999999999999,3.2,3.3000000000000003,3.3000000000000003,0.0,0.0,0.0,0.0,0.0,0.0,K
2.11,1.87,3.1,3.3000000000000003,3.3000000000000003,0.0,0.0,0.0,0.0,0.0,0.0,K
2.15,1.86,3.17,3.3000000000000003,3.3000000000000003,0.0,0.0,0.0,0.0,0.0,0.0,K
2.15,1.8500000000000003,3.2,3.3000000000000003,3.3000000000000003,0.0,0.0,0.0,0.0,0.0,0.0,K
2.06,1.82,3.2,3.3000000000000003,3.3000000000000003,0.0,0.0,0.0,0.0,0.0,0.0,K
2.12,1.78,3.11,3.3000000000000003,3.3000000000000003,0.0,0.0,0.0,0.0,0.0,0.0,K
2.1,1.87,3.02,3.3000000000000003,3.3000000000000003,0.0,0.0,0.0,0.0,0.0,0.0,K
2.06,1.8500000000000003,3.19,3.3000000000000003,3.3000000000000003,0.0,0.0,0.0,0.0,0.0,0.0,K
2.09,1.79,3.04,3.3000000000000003,3.3000000000000003,0.0,0.0,0.0,0.0,0.0,0.0,K
2.11,1.79,3.0,3.3000000000000003,3.3000000000000003,0.0,0.0,0.0,0.0,0.0,0.0,K
2.15,1.76,2.98,3.3000000000000003,3.3000000000000003,0.0,0.0,0.0,0.0,0.0,0.0,K
2.15,1.71,3.03,3.3000000000000003,3.3000000000000003,0.0,0.0,0.0,0.0,0.0,0.0,K
2.14,1.7000000000000002,3.2099999999999995,3.3000000000000003,3.3000000000000003,0.0,0.0,0.0,0.0,0.0,0.0,K
2.11,1.72,3.12,3.3000000000000003,3.3000000000000003,0.0,0.0,0.0,0.0,0.0,0.0,K
2.09,1.81,3.2099999999999995,3.3000000000000003,3.3000000000000003,0.0,0.0,0.0,0.0,0.0,0.0,K
2.1,1.83,3.2,3.3000000000000003,3.3000000000000003,0.0,0.0,0.0,0.0,0.0,0.0,K
2.1,1.83,3.05,3.3000000000000003,3.3000000000000003,0.0,0.0,0.0,0.0,0.0,0.0,K
2.14,1.8500000000000003,3.09,3.3000000000000003,3.3000000000000003,0.0,0.0,0.0,0.0,0.0,0.0,K
2.12,1.78,3.2099999999999995,3.3000000000000003,3.3000000000000003,0.0,0.0,0.0,0.0,0.0,0.0,K
2.12,1.86,3.07,3.3000000000000003,3.3000000000000003,0.0,0.0,0.0,0.0,0.0,0.0,K
2.13,1.81,3.17,3.3000000000000003,3.3000000000000003,0.0,0.0,0.0,0.0,0.0,0.0,K
2.15,1.82,3.15,3.3000000000000003,3.3000000000000003,0.0,0.0,0.0,0.0,0.0,0.0,K
2.11,1.79,3.07,3.3000000000000003,3.3000000000000003,0.0,0.0,0.0,0.0,0.0,0.0,K
2.13,1.71,3.2400000000000007,3.3000000000000003,3.3000000000000003,0.0,0.0,0.0,0.0,0.0,0.0,K
2.14,1.82,2.97,3.3000000000000003,3.3000000000000003,0.0,0.0,0.0,0.0,0.0,0.0,K
2.12,1.81,3.12,3.3000000000000003,3.3000000000000003,0.0,0.0,0.0,0.0,0.0,0.0,K
2.06,1.83,3.18,3.3000000000000003,3.3000000000000003,0.0,0.0,0.0,0.0,0.0,0.0,K
2.09,1.72,2.95,3.3000000000000003,3.3000000000000003,0.0,0.0,0.0,0.0,0.0,0.0,K
2.13,1.86,3.08,3.3000000000000003,3.3000000000000003,0.0,0.0,0.0,0.0,0.0,0.0,K
2.06,1.87,3.16,3.3000000000000003,3.3000000000000003,0.0,0.0,0.0,0.0,0.0,0.0,K
2.11,1.8500000000000003,3.2,3.3000000000000003,3.3000000000000003,0.0,0.0,0.0,0.0,0.0,0.0,K
2.06,1.67,3.2199999999999998,3.3000000000000003,3.3000000000000003,0.0,0.0,0.0,0.0,0.0,0.0,K
2.14,1.81,3.2,3.3000000000000003,3.3000000000000003,0.0,0.0,0.0,0.0,0.0,0.0,K
2.12,1.71,3.01,3.3000000000000003,3.3000000000000003,0.0,0.0,0.0,0.0,0.0,0.0,K
2.11,1.86,3.16,3.3000000000000003,3.3000000000000003,0.0,0.0,0.0,0.0,0.0,0.0,K
2.12,1.82,3.16,3.3000000000000003,3.3000000000000003,0.0,0.0,0.0,0.0,0.0,0.0,K
2.15,1.7000000000000002,3.15,3.3000000000000003,3.3000000000000003,0.0,0.0,0.0,0.0,0.0,0.0,K
2.06,1.8000000000000003,2.97,3.3000000000000003,3.3000000000000003,0.0,0.0,0.0,0.0,0.0,0.0,K
2.15,1.81,3.11,3.3000000000000003,3.3000000000000003,0.0,0.0,0.0,0.0,0.0,0.0,K
2.12,1.87,3.0,3.3000000000000003,3.3000000000000003,0.0,0.0,0.0,0.0,0.0,0.0,K
2.13,1.81,3.15,3.3000000000000003,3.3000000000000003,0.0,0.0,0.0,0.0,0.0,0.0,K
2.13,1.79,3.1300000000000003,3.3000000000000003,3.3000000000000003,0.0,0.0,0.0,0.0,0.0,0.0,K
2.11,1.83,3.16,3.3000000000000003,3.3000000000000003,0.0,0.0,0.0,0.0,0.0,0.0,K
2.16,1.78,3.19,3.3000000000000003,3.3000000000000003,0.0,0.0,0.0,0.0,0.0,0.0,K
2.15,1.72,3.2099999999999995,3.3000000000000003,3.3000000000000003,0.0,0.0,0.0,0.0,0.0,0.0,K
2.11,1.96,3.09,3.3000000000000003,3.3000000000000003,0.0,0.0,0.0,0.0,0.0,0.0,K
2.14,1.77,3.1300000000000003,3.3000000000000003,3.3000000000000003,0.0,0.0,0.0,0.0,0.0,0.0,K
2.13,1.86,3.09,3.3000000000000003,3.3000000000000003,0.0,0.0,0.0,0.0,0.0,0.0,K
2.16,1.7000000000000002,3.03,3.3000000000000003,3.3000000000000003,0.0,0.0,0.0,0.0,0.0,0.0,K
2.18,1.87,2.98,3.3000000000000003,3.3000000000000003,0.0,0.0,0.0,0.0,0.0,0.0,K
2.16,1.8399999999999999,3.2199999999999998,3.3000000000000003,3.3000000000000003,0.0,0.0,0.0,0.0,0.0,0.0,K
2.12,1.82,2.96,3.3000000000000003,3.3000000000000003,0.0,0.0,0.0,0.0,0.0,0.0,K
2.16,1.68,3.19,3.3000000000000003,3.3000000000000003,0.0,0.0,0.0,0.0,0.0,0.0,K
2.16,1.82,3.11,3.3000000000000003,3.3000000000000003,0.0,0.0,0.0,0.0,0.0,0.0,K
2.1,1.68,3.12,3.3000000000000003,3.3000000000000003,0.0,0.0,0.0,0.0,0.0,0.0,K
2.15,1.78,3.11,3.3000000000000003,3.3000000000000003,0.0,0.0,0.0,0.0,0.0,0.0,K
2.17,1.83,3.2,3.3000000000000003,3.3000000000000003,0.0,0.0,0.0,0.0,0.0,0.0,K
2.06,1.73,2.89,3.3000000000000003,3.3000000000000003,0.0,0.0,0.0,0.0,0.0,0.0,K
2.15,1.81,3.19,3.3000000000000003,3.3000000000000003,0.0,0.0,0.0,0.0,0.0,0.0,K
2.14,1.87,3.1400000000000006,3.3000000000000003,3.3000000000000003,0.0,0.0,0.0,0.0,0.0,0.0,K
2.11,1.8399999999999999,3.18,3.3000000000000003,3.3000000000000003,0.0,0.0,0.0,0.0,0.0,0.0,K
2.15,1.81,3.11,3.3000000000000003,3.3000000000000003,0.0,0.0,0.0,0.0,0.0,0.0,K
2.06,1.86,3.15,3.3000000000000003,3.3000000000000003,0.0,0.0,0.0,0.0,0.0,0.0,K
2.18,1.8399999999999999,3.2099999999999995,3.3000000000000003,3.3000000000000003,0.0,0.0,0.0,0.0,0.0,0.0,K
2.14,1.77,2.94,3.3000000000000003,3.3000000000000003,0.0,0.0,0.0,0.0,0.0,0.0,K
1.95,1.76,3.2,3.3000000000000003,3.3000000000000003,0.0,0.0,0.0,0.0,0.0,0.0,K
2.09,1.82,2.98,3.3000000000000003,3.3000000000000003,0.0,0.0,0.0,0.0,0.0,0.0,K
2.11,1.78,3.08,3.3000000000000003,3.3000000000000003,0.0,0.0,0.0,0.0,0.0,0.0,K
2.1,1.68,3.1300000000000003,3.3000000000000003,3.3000000000000003,0.0,0.0,0.0,0.0,0.0,0.0,K
2.15,1.83,3.2199999999999998,3.3000000000000003,3.3000000000000003,0.0,0.0,0.0,0.0,0.0,0.0,K
2.06,1.86,3.2099999999999995,3.3000000000000003,3.3000000000000003,0.0,0.0,0.0,0.0,0.0,0.0,K
2.17,1.8000000000000003,2.93,3.3000000000000003,3.3000000000000003,0.0,0.0,0.0,0.0,0.0,0.0,K
2.13,1.77,3.1300000000000003,3.3000000000000003,3.3000000000000003,0.0,0.0,0.0,0.0,0.0,0.0,K
2.14,1.82,3.12,3.3000000000000003,3.3000000000000003,0.0,0.0,0.0,0.0,0.0,0.0,K
2.13,1.83,3.2099999999999995,3.3000000000000003,3.3000000000000003,0.0,0.0,0.0,0.0,0.0,0.0,K
2.11,1.82,3.11,3.3000000000000003,3.3000000000000003,0.0,0.0,0.0,0.0,0.0,0.0,K
2.06,1.8500000000000003,3.2199999999999998,3.3000000000000003,3.3000000000000003,0.0,0.0,0.0,0.0,0.0,0.0,K
2.17,1.86,3.2,3.3000000000000003,3.3000000000000003,0.0,0.0,0.0,0.0,0.0,0.0,K
2.09,1.7500000000000002,3.16,3.3000000000000003,3.3000000000000003,0.0,0.0,0.0,0.0,0.0,0.0,K
2.1,1.79,3.07,3.3000000000000003,3.3000000000000003,0.0,0.0,0.0,0.0,0.0,0.0,K
2.11,1.79,3.2199999999999998,3.3000000000000003,3.3000000000000003,0.0,0.0,0.0,0.0,0.0,0.0,K
2.15,1.82,3.1300000000000003,3.3000000000000003,3.3000000000000003,0.0,0.0,0.0,0.0,0.0,0.0,K
2.13,1.81,3.1300000000000003,3.3000000000000003,3.3000000000000003,0.0,0.0,0.0,0.0,0.0,0.0,K
2.08,1.82,3.2099999999999995,3.3000000000000003,3.3000000000000003,0.0,0.0,0.0,0.0,0.0,0.0,K
2.14,1.8900000000000001,3.11,3.3000000000000003,3.3000000000000003,0.0,0.0,0.0,0.0,0.0,0.0,K
2.06,1.87,3.12,3.3000000000000003,3.3000000000000003,0.0,0.0,0.0,0.0,0.0,0.0,K
2.06,1.8799999999999997,3.16,3.3000000000000003,3.3000000000000003,0.0,0.0,0.0,0.0,0.0,0.0,K
2.09,1.73,3.06,3.3000000000000003,3.3000000000000003,0.0,0.0,0.0,0.0,0.0,0.0,K
2.08,1.7399999999999998,2.92,3.3000000000000003,3.3000000000000003,0.0,0.0,0.0,0.0,0.0,0.0,K
2.13,1.78,3.12,3.3000000000000003,3.3000000000000003,0.0,0.0,0.0,0.0,0.0,0.0,K
2.15,1.77,3.02,3.3000000000000003,3.3000000000000003,0.0,0.0,0.0,0.0,0.0,0.0,K
2.12,1.8500000000000003,3.2099999999999995,3.3000000000000003,3.3000000000000003,0.0,0.0,0.0,0.0,0.0,0.0,K
2.15,1.8500000000000003,3.12,3.3000000000000003,3.3000000000000003,0.0,0.0,0.0,0.0,0.0,0.0,K
2.13,1.8500000000000003,3.2099999999999995,3.3000000000000003,3.3000000000000003,0.0,0.0,0.0,0.0,0.0,0.0,K
2.13,1.8900000000000001,3.1300000000000003,3.3000000000000003,3.3000000000000003,0.0,0.0,0.0,0.0,0.0,0.0,K
2.15,1.8399999999999999,3.2199999999999998,3.3000000000000003,3.3000000000000003,0.0,0.0,0.0,0.0,0.0,0.0,K
2.12,1.78,3.1400000000000006,3.3000000000000003,3.3000000000000003,0.0,0.0,0.0,0.0,0.0,0.0,K
2.09,1.76,2.9,3.3000000000000003,3.3000000000000003,0.0,0.0,0.0,0.0,0.0,0.0,K
2.18,1.81,3.17,3.3000000000000003,3.3000000000000003,0.0,0.0,0.0,0.0,0.0,0.0,K
2.18,1.8399999999999999,3.2,3.3000000000000003,3.3000000000000003,0.0,0.0,0.0,0.0,0.0,0.0,K
2.06,1.81,3.02,3.3000000000000003,3.3000000000000003,0.0,0.0,0.0,0.0,0.0,0.0,K
2.12,1.87,3.19,3.3000000000000003,3.3000000000000003,0.0,0.0,0.0,0.0,0.0,0.0,K
2.09,1.8000000000000003,3.1,3.3000000000000003,3.3000000000000003,0.0,0.0,0.0,0.0,0.0,0.0,K
2.06,1.79,3.1,3.3000000000000003,3.3000000000000003,0.0,0.0,0.0,0.0,0.0,0.0,K
2.08,1.77,3.08,3.3000000000000003,3.3000000000000003,0.0,0.0,0.0,0.0,0.0,0.0,K
2.13,1.83,3.11,3.3000000000000003,3.3000000000000003,0.0,0.0,0.0,0.0,0.0,0.0,K
2.15,1.83,3.2,3.3000000000000003,3.3000000000000003,0.0,0.0,0.0,0.0,0.0,0.0,K
2.12,1.8900000000000001,3.03,3.3000000000000003,3.3000000000000003,0.0,0.0,0.0,0.0,0.0,0.0,K
2.15,1.83,3.1400000000000006,3.3000000000000003,3.3000000000000003,0.0,0.0,0.0,0.0,0.0,0.0,K
2.06,1.8799999999999997,3.18,3.3000000000000003,3.3000000000000003,0.0,0.0,0.0,0.0,0.0,0.0,K
2.15,1.8900000000000001,3.19,3.3000000000000003,3.3000000000000003,0.0,0.0,0.0,0.0,0.0,0.0,K
2.11,1.8399999999999999,3.1300000000000003,3.3000000000000003,3.3000000000000003,0.0,0.0,0.0,0.0,0.0,0.0,K
2.11,1.77,3.11,3.3000000000000003,3.3000000000000003,0.0,0.0,0.0,0.0,0.0,0.0,K
2.11,1.69,2.92,3.3000000000000003,3.3000000000000003,0.0,0.0,0.0,0.0,0.0,0.0,K
2.11,1.8000000000000003,2.98,3.3000000000000003,3.3000000000000003,0.0,0.0,0.0,0.0,0.0,0.0,K
2.15,1.87,3.2,3.3000000000000003,3.3000000000000003,0.0,0.0,0.0,0.0,0.0,0.0,K
2.11,1.86,2.95,3.3000000000000003,3.3000000000000003,0.0,0.0,0.0,0.0,0.0,0.0,K
2.15,1.8799999999999997,3.18,3.3000000000000003,3.3000000000000003,0.0,0.0,0.0,0.0,0.0,0.0,K
2.1,1.81,3.1300000000000003,3.3000000000000003,3.3000000000000003,0.0,0.0,0.0,0.0,0.0,0.0,K
2.14,1.87,3.17,3.3000000000000003,3.3000000000000003,0.0,0.0,0.0,0.0,0.0,0.0,K
2.17,1.8500000000000003,3.12,3.3000000000000003,3.3000000000000003,0.0,0.0,0.0,0.0,0.0,0.0,K
2.14,1.86,3.06,3.3000000000000003,3.3000000000000003,0.0,0.0,0.0,0.0,0.0,0.0,K
2.13,1.8500000000000003,3.17,3.3000000000000003,3.3000000000000003,0.0,0.0,0.0,0.0,0.0,0.0,K
2.06,1.8500000000000003,3.2300000000000004,3.3000000000000003,3.3000000000000003,0.0,0.0,0.0,0.0,0.0,0.0,K
2.09,1.71,3.2,3.3000000000000003,3.3000000000000003,0.0,0.0,0.0,0.0,0.0,0.0,K
2.14,1.8799999999999997,3.2199999999999998,3.3000000000000003,3.3000000000000003,0.0,0.0,0.0,0.0,0.0,0.0,K
2.1,1.78,3.08,3.3000000000000003,3.3000000000000003,0.0,0.0,0.0,0.0,0.0,0.0,K
2.06,1.86,3.2,3.3000000000000003,3.3000000000000003,0.0,0.0,0.0,0.0,0.0,0.0,K
2.06,1.8399999999999999,3.19,3.3000000000000003,3.3000000000000003,0.0,0.0,0.0,0.0,0.0,0.0,K
2.06,1.8900000000000001,3.2099999999999995,3.3000000000000003,3.3000000000000003,0.0,0.0,0.0,0.0,0.0,0.0,K
2.16,1.8500000000000003,3.1300000000000003,3.3000000000000003,3.3000000000000003,0.0,0.0,0.0,0.0,0.0,0.0,K
2.08,1.8399999999999999,3.06,3.3000000000000003,3.3000000000000003,0.0,0.0,0.0,0.0,0.0,0.0,K
2.09,1.83,3.15,3.3000000000000003,3.3000000000000003,0.0,0.0,0.0,0.0,0.0,0.0,K
2.12,1.8000000000000003,3.08,3.3000000000000003,3.3000000000000003,0.0,0.0,0.0,0.0,0.0,0.0,K
2.09,1.82,3.11,3.3000000000000003,3.3000000000000003,0.0,0.0,0.0,0.0,0.0,0.0,K
2.09,1.77,3.1,3.3000000000000003,3.3000000000000003,0.0,0.0,0.0,0.0,0.0,0.0,K
2.16,1.72,3.05,3.3000000000000003,3.3000000000000003,0.0,0.0,0.0,0.0,0.0,0.0,K
2.1,1.79,3.1,3.3000000000000003,3.3000000000000003,0.0,0.0,0.0,0.0,0.0,0.0,K
2.14,1.8399999999999999,3.12,3.3000000000000003,3.3000000000000003,0.0,0.0,0.0,0.0,0.0,0.0,K
2.1,1.79,3.1,3.3000000000000003,3.3000000000000003,0.0,0.0,0.0,0.0,0.0,0.0,K
2.11,1.8799999999999997,3.2,3.3000000000000003,3.3000000000000003,0.0,0.0,0.0,0.0,0.0,0.0,K
2.09,1.8500000000000003,3.11,3.3000000000000003,3.3000000000000003,0.0,0.0,0.0,0.0,0.0,0.0,K
2.13,1.8799999999999997,2.98,3.3000000000000003,3.3000000000000003,0.0,0.0,0.0,0.0,0.0,0.0,K
2.11,1.8399999999999999,3.19,3.3000000000000003,3.3000000000000003,0.0,0.0,0.0,0.0,0.0,0.0,K
2.06,1.78,2.86,3.3000000000000003,3.3000000000000003,0.0,0.0,0.0,0.0,0.0,0.0,K
2.17,1.87,2.96,3.3000000000000003,3.3000000000000003,0.0,0.0,0.0,0.0,0.0,0.0,K
2.19,1.69,3.18,3.3000000000000003,3.3000000000000003,0.0,0.0,0.0,0.0,0.0,0.0,K
2.16,1.81,3.16,3.3000000000000003,3.3000000000000003,0.0,0.0,0.0,0.0,0.0,0.0,K
2.14,1.8500000000000003,3.12,3.3000000000000003,3.3000000000000003,0.0,0.0,0.0,0.0,0.0,0.0,K
2.09,1.73,3.02,3.3000000000000003,3.3000000000000003,0.0,0.0,0.0,0.0,0.0,0.0,K
2.09,1.8900000000000001,3.09,3.3000000000000003,3.3000000000000003,0.0,0.0,0.0,0.0,0.0,0.0,K
2.09,1.79,3.09,3.3000000000000003,3.3000000000000003,0.0,0.0,0.0,0.0,0.0,0.0,K
2.06,1.8900000000000001,3.2099999999999995,3.3000000000000003,3.3000000000000003,0.0,0.0,0.0,0.0,0.0,0.0,K
2.16,1.77,3.2,3.3000000000000003,3.3000000000000003,0.0,0.0,0.0,0.0,0.0,0.0,K
2.15,1.8399999999999999,3.12,3.3000000000000003,3.3000000000000003,0.0,0.0,0.0,0.0,0.0,0.0,K
2.1,1.83,3.16,3.3000000000000003,3.3000000000000003,0.0,0.0,0.0,0.0,0.0,0.0,K
2.14,1.8799999999999997,3.2199999999999998,3.3000000000000003,3.3000000000000003,0.0,0.0,0.0,0.0,0.0,0.0,K
2.12,1.81,3.08,3.3000000000000003,3.3000000000000003,0.0,0.0,0.0,0.0,0.0,0.0,K
2.12,1.8399999999999999,3.15,3.3000000000000003,3.3000000000000003,0.0,0.0,0.0,0.0,0.0,0.0,K
2.16,1.8500000000000003,3.2,3.3000000000000003,3.3000000000000003,0.0,0.0,0.0,0.0,0.0,0.0,K
2.28,1.83,3.1300000000000003,3.3000000000000003,3.3000000000000003,0.0,0.0,0.0,0.0,0.0,0.0,K
2.06,1.8000000000000003,2.88,3.3000000000000003,3.3000000000000003,0.0,0.0,0.0,0.0,0.0,0.0,K
2.06,1.8799999999999997,3.2099999999999995,3.3000000000000003,3.3000000000000003,0.0,0.0,0.0,0.0,0.0,0.0,K
2.15,1.82,3.12,3.3000000000000003,3.3000000000000003,0.0,0.0,0.0,0.0,0.0,0.0,K
2.16,1.69,3.1,3.3000000000000003,3.3000000000000003,0.0,0.0,0.0,0.0,0.0,0.0,K
2.16,1.81,3.1400000000000006,3.3000000000000003,3.3000000000000003,0.0,0.0,0.0,0.0,0.0,0.0,K
2.13,1.73,3.06,3.3000000000000003,3.3000000000000003,0.0,0.0,0.0,0.0,0.0,0.0,K
2.1,1.7399999999999998,3.09,3.3000000000000003,3.3000000000000003,0.0,0.0,0.0,0.0,0.0,0.0,K
2.15,1.76,3.08,3.3000000000000003,3.3000000000000003,0.0,0.0,0.0,0.0,0.0,0.0,K
2.08,1.72,3.07,3.3000000000000003,3.3000000000000003,0.0,0.0,0.0,0.0,0.0,0.0,K
2.08,1.78,3.11,3.3000000000000003,3.3000000000000003,0.0,0.0,0.0,0.0,0.0,0.0,K
2.06,1.71,3.1400000000000006,3.3000000000000003,3.3000000000000003,0.0,0.0,0.0,0.0,0.0,0.0,K
2.1,1.72,2.9,3.3000000000000003,3.3000000000000003,0.0,0.0,0.0,0.0,0.0,0.0,K
2.05,1.8900000000000001,2.88,3.3000000000000003,3.3000000000000003,0.0,0.0,0.0,0.0,0.0,0.0,K
2.14,1.87,3.2099999999999995,3.3000000000000003,3.3000000000000003,0.0,0.0,0.0,0.0,0.0,0.0,K
2.13,1.86,2.99,3.3000000000000003,3.3000000000000003,0.0,0.0,0.0,0.0,0.0,0.0,K
2.14,1.69,3.2,3.3000000000000003,3.3000000000000003,0.0,0.0,0.0,0.0,0.0,0.0,K
2.09,1.69,2.88,3.3000000000000003,3.3000000000000003,0.0,0.0,0.0,0.0,0.0,0.0,K
2.13,1.8399999999999999,3.2199999999999998,3.3000000000000003,3.3000000000000003,0.0,0.0,0.0,0.0,0.0,0.0,K
2.13,1.8399999999999999,3.1400000000000006,3.3000000000000003,3.3000000000000003,0.0,0.0,0.0,0.0,0.0,0.0,K
2.11,1.81,3.18,3.3000000000000003,3.3000000000000003,0.0,0.0,0.0,0.0,0.0,0.0,K
2.14,1.8399999999999999,3.11,3.3000000000000003,3.3000000000000003,0.0,0.0,0.0,0.0,0.0,0.0,K
2.13,1.8799999999999997,3.18,3.3000000000000003,3.3000000000000003,0.0,0.0,0.0,0.0,0.0,0.0,K
2.13,1.8799999999999997,3.12,3.3000000000000003,3.3000000000000003,0.0,0.0,0.0,0.0,0.0,0.0,K
2.16,1.8500000000000003,3.1400000000000006,3.3000000000000003,3.3000000000000003,0.0,0.0,0.0,0.0,0.0,0.0,K
2.06,1.8399999999999999,3.2099999999999995,3.3000000000000003,3.3000000000000003,0.0,0.0,0.0,0.0,0.0,0.0,K
2.12,1.8900000000000001,3.06,3.3000000000000003,3.3000000000000003,0.0,0.0,0.0,0.0,0.0,0.0,K
2.12,1.87,3.2,3.3000000000000003,3.3000000000000003,0.0,0.0,0.0,0.0,0.0,0.0,K
2.15,1.8399999999999999,3.2099999999999995,3.3000000000000003,3.3000000000000003,0.0,0.0,0.0,0.0,0.0,0.0,K
2.16,1.86,3.2199999999999998,3.3000000000000003,3.3000000000000003,0.0,0.0,0.0,0.0,0.0,0.0,K
2.12,1.81,3.03,3.3000000000000003,3.3000000000000003,0.0,0.0,0.0,0.0,0.0,0.0,K
2.17,1.78,3.11,3.3000000000000003,3.3000000000000003,0.0,0.0,0.0,0.0,0.0,0.0,K
2.06,1.79,3.11,3.3000000000000003,3.3000000000000003,0.0,0.0,0.0,0.0,0.0,0.0,K
2.13,1.79,3.1300000000000003,3.3000000000000003,3.3000000000000003,0.0,0.0,0.0,0.0,0.0,0.0,K
2.22,1.79,3.2,3.3000000000000003,3.3000000000000003,0.0,0.0,0.0,0.0,0.0,0.0,K
2.06,1.8900000000000001,2.94,3.3000000000000003,3.3000000000000003,0.0,0.0,0.0,0.0,0.0,0.0,K
2.14,1.81,3.18,3.3000000000000003,3.3000000000000003,0.0,0.0,0.0,0.0,0.0,0.0,K
2.11,1.77,3.12,3.3000000000000003,3.3000000000000003,0.0,0.0,0.0,0.0,0.0,0.0,K
2.21,1.87,2.96,3.3000000000000003,3.3000000000000003,0.0,0.0,0.0,0.0,0.0,0.0,K
2.11,1.79,3.08,3.3000000000000003,3.3000000000000003,0.0,0.0,0.0,0.0,0.0,0.0,K
2.16,1.8399999999999999,3.09,3.3000000000000003,3.3000000000000003,0.0,0.0,0.0,0.0,0.0,0.0,K
2.15,1.8399999999999999,3.18,3.3000000000000003,3.3000000000000003,0.0,0.0,0.0,0.0,0.0,0.0,K
2.2,1.8799999999999997,3.2,3.3000000000000003,3.3000000000000003,0.0,0.0,0.0,0.0,0.0,0.0,K
2.13,1.83,3.26,3.3000000000000003,3.3000000000000003,0.0,0.0,0.0,0.0,0.0,0.0,K
2.06,1.8799999999999997,3.2,3.3000000000000003,3.3000000000000003,0.0,0.0,0.0,0.0,0.0,0.0,K
2.13,1.7000000000000002,3.2099999999999995,3.3000000000000003,3.3000000000000003,0.0,0.0,0.0,0.0,0.0,0.0,K
2.17,1.8399999999999999,3.1300000000000003,3.3000000000000003,3.3000000000000003,0.0,0.0,0.0,0.0,0.0,0.0,K
2.13,1.86,3.2099999999999995,3.3000000000000003,3.3000000000000003,0.0,0.0,0.0,0.0,0.0,0.0,K
2.13,1.72,3.12,3.3000000000000003,3.3000000000000003,0.0,0.0,0.0,0.0,0.0,0.0,K
2.15,1.79,3.1300000000000003,3.3000000000000003,3.3000000000000003,0.0,0.0,0.0,0.0,0.0,0.0,K
2.06,1.87,3.2099999999999995,3.3000000000000003,3.3000000000000003,0.0,0.0,0.0,0.0,0.0,0.0,K
2.12,1.87,2.91,3.3000000000000003,3.3000000000000003,0.0,0.0,0.0,0.0,0.0,0.0,K
2.15,1.8500000000000003,3.12,3.3000000000000003,3.3000000000000003,0.0,0.0,0.0,0.0,0.0,0.0,K
2.15,1.8799999999999997,3.15,3.3000000000000003,3.3000000000000003,0.0,0.0,0.0,0.0,0.0,0.0,K
2.16,1.8500000000000003,3.1300000000000003,3.3000000000000003,3.3000000000000003,0.0,0.0,0.0,0.0,0.0,0.0,K
2.1,1.77,3.09,3.3000000000000003,3.3000000000000003,0.0,0.0,0.0,0.0,0.0,0.0,K
2.15,1.8399999999999999,3.12,3.3000000000000003,3.3000000000000003,0.0,0.0,0.0,0.0,0.0,0.0,K
2.15,1.81,3.08,3.3000000000000003,3.3000000000000003,0.0,0.0,0.0,0.0,0.0,0.0,K
2.06,1.87,3.17,3.3000000000000003,3.3000000000000003,0.0,0.0,0.0,0.0,0.0,0.0,K
2.06,1.8799999999999997,3.2099999999999995,3.3000000000000003,3.3000000000000003,0.0,0.0,0.0,0.0,0.0,0.0,K
2.12,1.8399999999999999,3.2099999999999995,3.3000000000000003,3.3000000000000003,0.0,0.0,0.0,0.0,0.0,0.0,K
2.09,1.87,3.2099999999999995,3.3000000000000003,3.3000000000000003,0.0,0.0,0.0,0.0,0.0,0.0,K
2.06,1.8000000000000003,2.94,3.3000000000000003,3.3000000000000003,0.0,0.0,0.0,0.0,0.0,0.0,K
2.15,1.77,3.11,3.3000000000000003,3.3000000000000003,0.0,0.0,0.0,0.0,0.0,0.0,K
2.06,1.87,3.1,3.3000000000000003,3.3000000000000003,0.0,0.0,0.0,0.0,0.0,0.0,K
2.09,1.7399999999999998,2.94,3.3000000000000003,3.3000000000000003,0.0,0.0,0.0,0.0,0.0,0.0,K
2.11,1.8500000000000003,3.08,3.3000000000000003,3.3000000000000003,0.0,0.0,0.0,0.0,0.0,0.0,K
2.09,1.8900000000000001,2.93,3.3000000000000003,3.3000000000000003,0.0,0.0,0.0,0.0,0.0,0.0,K
2.09,1.7399999999999998,3.18,3.3000000000000003,3.3000000000000003,0.0,0.0,0.0,0.0,0.0,0.0,K
2.09,1.8399999999999999,3.12,3.3000000000000003,3.3000000000000003,0.0,0.0,0.0,0.0,0.0,0.0,K
2.13,1.8399999999999999,3.11,3.3000000000000003,3.3000000000000003,0.0,0.0,0.0,0.0,0.0,0.0,K
2.14,1.78,3.2199999999999998,3.3000000000000003,3.3000000000000003,0.0,0.0,0.0,0.0,0.0,0.0,K
2.11,1.82,3.2099999999999995,3.3000000000000003,3.3000000000000003,0.0,0.0,0.0,0.0,0.0,0.0,K
2.14,1.8399999999999999,3.11,3.3000000000000003,3.3000000000000003,0.0,0.0,0.0,0.0,0.0,0.0,K
2.08,1.7500000000000002,3.2,3.3000000000000003,3.3000000000000003,0.0,0.0,0.0,0.0,0.0,0.0,K
2.1,1.86,3.2099999999999995,3.3000000000000003,3.3000000000000003,0.0,0.0,0.0,0.0,0.0,0.0,K
2.13,1.8000000000000003,3.04,3.3000000000000003,3.3000000000000003,0.0,0.0,0.0,0.0,0.0,0.0,K
2.05,1.7000000000000002,3.0,3.3000000000000003,3.3000000000000003,0.0,0.0,0.0,0.0,0.0,0.0,K
2.15,1.8900000000000001,3.2,3.3000000000000003,3.3000000000000003,0.0,0.0,0.0,0.0,0.0,0.0,K
2.12,1.86,3.06,3.3000000000000003,3.3000000000000003,0.0,0.0,0.0,0.0,0.0,0.0,K
2.13,1.83,3.11,3.3000000000000003,3.3000000000000003,0.0,0.0,0.0,0.0,0.0,0.0,K
2.15,1.8500000000000003,3.11,3.3000000000000003,3.3000000000000003,0.0,0.0,0.0,0.0,0.0,0.0,K
2.13,1.79,3.2,3.3000000000000003,3.3000000000000003,0.0,0.0,0.0,0.0,0.0,0.0,K
2.13,1.87,3.1300000000000003,3.3000000000000003,3.3000000000000003,0.0,0.0,0.0,0.0,0.0,0.0,K
2.1,1.8399999999999999,3.02,3.3000000000000003,3.3000000000000003,0.0,0.0,0.0,0.0,0.0,0.0,K
2.12,1.8399999999999999,3.3000000000000003,3.3000000000000003,3.3000000000000003,0.0,0.0,0.0,0.0,0.0,0.0,K
2.12,1.8500000000000003,2.97,3.3000000000000003,3.3000000000000003,0.0,0.0,0.0,0.0,0.0,0.0,K
2.15,1.8900000000000001,3.11,3.3000000000000003,3.3000000000000003,0.0,0.0,0.0,0.0,0.0,0.0,K
2.2,1.8799999999999997,3.2099999999999995,3.3000000000000003,3.3000000000000003,0.0,0.0,0.0,0.0,0.0,0.0,K
2.06,1.87,3.2,3.3000000000000003,3.3000000000000003,0.0,0.0,0.0,0.0,0.0,0.0,K
2.17,1.91,3.2099999999999995,3.3000000000000003,3.3000000000000003,0.0,0.0,0.0,0.0,0.0,0.0,K
2.1,1.8900000000000001,3.2199999999999998,3.3000000000000003,3.3000000000000003,0.0,0.0,0.0,0.0,0.0,0.0,K
2.06,1.8900000000000001,3.2099999999999995,3.3000000000000003,3.3000000000000003,0.0,0.0,0.0,0.0,0.0,0.0,K
2.12,1.8500000000000003,3.19,3.3000000000000003,3.3000000000000003,0.0,0.0,0.0,0.0,0.0,0.0,K
2.11,1.79,3.2099999999999995,3.3000000000000003,3.3000000000000003,0.0,0.0,0.0,0.0,0.0,0.0,K
2.09,1.8000000000000003,2.97,3.3000000000000003,3.3000000000000003,0.0,0.0,0.0,0.0,0.0,0.0,K
2.06,1.71,3.06,3.3000000000000003,3.3000000000000003,0.0,0.0,0.0,0.0,0.0,0.0,K
2.1,1.7399999999999998,3.02,3.3000000000000003,3.3000000000000003,0.0,0.0,0.0,0.0,0.0,0.0,K
2.14,1.82,3.1,3.3000000000000003,3.3000000000000003,0.0,0.0,0.0,0.0,0.0,0.0,K
2.16,1.9,3.2,3.3000000000000003,3.3000000000000003,0.0,0.0,0.0,0.0,0.0,0.0,K
2.16,1.87,3.04,3.3000000000000003,3.3000000000000003,0.0,0.0,0.0,0.0,0.0,0.0,K
2.17,1.81,3.0,3.3000000000000003,3.3000000000000003,0.0,0.0,0.0,0.0,0.0,0.0,K
2.15,1.86,2.97,3.3000000000000003,3.3000000000000003,0.0,0.0,0.0,0.0,0.0,0.0,K
2.16,1.7500000000000002,3.12,3.3000000000000003,3.3000000000000003,0.0,0.0,0.0,0.0,0.0,0.0,K
2.12,1.82,3.19,3.3000000000000003,3.3000000000000003,0.0,0.0,0.0,0.0,0.0,0.0,K
2.16,1.94,3.2099999999999995,3.3000000000000003,3.3000000000000003,0.0,0.0,0.0,0.0,0.0,0.0,K
2.13,1.7500000000000002,2.94,3.3000000000000003,3.3000000000000003,0.0,0.0,0.0,0.0,0.0,0.0,K
2.11,1.86,3.29,3.3000000000000003,3.3000000000000003,0.0,0.0,0.0,0.0,0.0,0.0,K
2.19,1.69,3.06,3.3000000000000003,3.3000000000000003,0.0,0.0,0.0,0.0,0.0,0.0,K
2.09,1.8900000000000001,3.29,3.3000000000000003,3.3000000000000003,0.0,0.0,0.0,0.0,0.0,0.0,K
2.05,1.83,3.2099999999999995,3.3000000000000003,3.3000000000000003,0.0,0.0,0.0,0.0,0.0,0.0,K
2.06,1.86,3.16,3.3000000000000003,3.3000000000000003,0.0,0.0,0.0,0.0,0.0,0.0,K
2.09,1.7000000000000002,3.1,3.3000000000000003,3.3000000000000003,0.0,0.0,0.0,0.0,0.0,0.0,K
2.12,1.83,3.17,3.3000000000000003,3.3000000000000003,0.0,0.0,0.0,0.0,0.0,0.0,K
2.06,1.8900000000000001,3.2099999999999995,3.3000000000000003,3.3000000000000003,0.0,0.0,0.0,0.0,0.0,0.0,K
2.06,1.8900000000000001,3.2,3.3000000000000003,3.3000000000000003,0.0,0.0,0.0,0.0,0.0,0.0,K
2.14,1.83,3.15,3.3000000000000003,3.3000000000000003,0.0,0.0,0.0,0.0,0.0,0.0,K
2.09,1.81,3.06,3.3000000000000003,3.3000000000000003,0.0,0.0,0.0,0.0,0.0,0.0,K
2.09,1.82,3.15,3.3000000000000003,3.3000000000000003,0.0,0.0,0.0,0.0,0.0,0.0,K
2.14,1.8799999999999997,3.18,3.3000000000000003,3.3000000000000003,0.0,0.0,0.0,0.0,0.0,0.0,K
2.15,1.8799999999999997,3.2099999999999995,3.3000000000000003,3.3000000000000003,0.0,0.0,0.0,0.0,0.0,0.0,K
2.14,1.8500000000000003,3.1,3.3000000000000003,3.3000000000000003,0.0,0.0,0.0,0.0,0.0,0.0,K
2.16,1.8399999999999999,3.19,3.3000000000000003,3.3000000000000003,0.0,0.0,0.0,0.0,0.0,0.0,K
2.15,1.81,3.19,3.3000000000000003,3.3000000000000003,0.0,0.0,0.0,0.0,0.0,0.0,K
2.06,1.86,3.2099999999999995,3.3000000000000003,3.3000000000000003,0.0,0.0,0.0,0.0,0.0,0.0,K
2.11,1.87,3.16,3.3000000000000003,3.3000000000000003,0.0,0.0,0.0,0.0,0.0,0.0,K
2.06,1.8000000000000003,3.11,3.3000000000000003,3.3000000000000003,0.0,0.0,0.0,0.0,0.0,0.0,K
2.17,1.8900000000000001,3.2099999999999995,3.3000000000000003,3.3000000000000003,0.0,0.0,0.0,0.0,0.0,0.0,K
2.13,1.8399999999999999,3.18,3.3000000000000003,3.3000000000000003,0.0,0.0,0.0,0.0,0.0,0.0,K
2.14,1.82,3.12,3.3000000000000003,3.3000000000000003,0.0,0.0,0.0,0.0,0.0,0.0,K
2.12,1.8799999999999997,3.1300000000000003,3.3000000000000003,3.3000000000000003,0.0,0.0,0.0,0.0,0.0,0.0,K
2.2,1.79,2.88,3.3000000000000003,3.3000000000000003,0.0,0.0,0.0,0.0,0.0,0.0,K
2.09,1.83,3.1400000000000006,3.3000000000000003,3.3000000000000003,0.0,0.0,0.0,0.0,0.0,0.0,K
2.1,1.86,3.06,3.3000000000000003,3.3000000000000003,0.0,0.0,0.0,0.0,0.0,0.0,K
2.1,1.68,3.12,3.3000000000000003,3.3000000000000003,0.0,0.0,0.0,0.0,0.0,0.0,K
2.06,1.8799999999999997,3.2099999999999995,3.3000000000000003,3.3000000000000003,0.0,0.0,0.0,0.0,0.0,0.0,K
2.15,1.8799999999999997,3.2099999999999995,3.3000000000000003,3.3000000000000003,0.0,0.0,0.0,0.0,0.0,0.0,K
2.06,1.8900000000000001,3.18,3.3000000000000003,3.3000000000000003,0.0,0.0,0.0,0.0,0.0,0.0,K
2.17,1.8900000000000001,3.2,3.3000000000000003,3.3000000000000003,0.0,0.0,0.0,0.0,0.0,0.0,K
2.13,1.82,3.11,3.3000000000000003,3.3000000000000003,0.0,0.0,0.0,0.0,0.0,0.0,K
2.15,1.8799999999999997,3.18,3.3000000000000003,3.3000000000000003,0.0,0.0,0.0,0.0,0.0,0.0,K
2.06,1.8000000000000003,2.96,3.3000000000000003,3.3000000000000003,0.0,0.0,0.0,0.0,0.0,0.0,K
2.15,1.73,3.15,3.3000000000000003,3.3000000000000003,0.0,0.0,0.0,0.0,0.0,0.0,K
2.06,1.87,3.15,3.3000000000000003,3.3000000000000003,0.0,0.0,0.0,0.0,0.0,0.0,K
2.13,1.86,3.19,3.3000000000000003,3.3000000000000003,0.0,0.0,0.0,0.0,0.0,0.0,K
2.16,1.86,2.93,3.3000000000000003,3.3000000000000003,0.0,0.0,0.0,0.0,0.0,0.0,K
2.17,1.8399999999999999,3.11,3.3000000000000003,3.3000000000000003,0.0,0.0,0.0,0.0,0.0,0.0,K
2.13,1.8799999999999997,3.2,3.3000000000000003,3.3000000000000003,0.0,0.0,0.0,0.0,0.0,0.0,K
2.19,1.8399999999999999,3.08,3.3000000000000003,3.3000000000000003,0.0,0.0,0.0,0.0,0.0,0.0,K
2.17,1.97,3.18,3.3000000000000003,3.3000000000000003,0.0,0.0,0.0,0.0,0.0,0.0,K
2.17,1.82,3.03,3.3000000000000003,3.3000000000000003,0.0,0.0,0.0,0.0,0.0,0.0,K
2.16,1.79,3.07,3.3000000000000003,3.3000000000000003,0.0,0.0,0.0,0.0,0.0,0.0,K
2.17,1.8500000000000003,3.16,3.3000000000000003,3.3000000000000003,0.0,0.0,0.0,0.0,0.0,0.0,K
2.16,1.91,3.2,3.3000000000000003,3.3000000000000003,0.0,0.0,0.0,0.0,0.0,0.0,K
2.11,1.81,3.15,3.3000000000000003,3.3000000000000003,0.0,0.0,0.0,0.0,0.0,0.0,K
2.18,1.81,3.04,3.3000000000000003,3.3000000000000003,0.0,0.0,0.0,0.0,0.0,0.0,K
2.12,1.77,3.01,3.3000000000000003,3.3000000000000003,0.0,0.0,0.0,0.0,0.0,0.0,K
2.09,1.86,3.09,3.3000000000000003,3.3000000000000003,0.0,0.0,0.0,0.0,0.0,0.0,K
2.09,1.82,3.04,3.3000000000000003,3.3000000000000003,0.0,0.0,0.0,0.0,0.0,0.0,K
2.08,1.8500000000000003,3.17,3.3000000000000003,3.3000000000000003,0.0,0.0,0.0,0.0,0.0,0.0,K
2.14,1.81,3.06,3.3000000000000003,3.3000000000000003,0.0,0.0,0.0,0.0,0.0,0.0,K
2.09,1.78,3.01,3.3000000000000003,3.3000000000000003,0.0,0.0,0.0,0.0,0.0,0.0,K
2.13,1.9,3.02,3.3000000000000003,3.3000000000000003,0.0,0.0,0.0,0.0,0.0,0.0,K
2.2,1.8900000000000001,3.15,3.3000000000000003,3.3000000000000003,0.0,0.0,0.0,0.0,0.0,0.0,K
2.2,1.83,3.07,3.3000000000000003,3.3000000000000003,0.0,0.0,0.0,0.0,0.0,0.0,K
2.17,1.9,3.16,3.3000000000000003,3.3000000000000003,0.0,0.0,0.0,0.0,0.0,0.0,K
2.17,1.76,2.94,3.3000000000000003,3.3000000000000003,0.0,0.0,0.0,0.0,0.0,0.0,K
2.19,1.8799999999999997,2.81,3.3000000000000003,3.3000000000000003,0.0,0.0,0.0,0.0,0.0,0.0,K
2.13,1.81,3.09,3.3000000000000003,3.3000000000000003,0.0,0.0,0.0,0.0,0.0,0.0,K
2.16,1.86,2.9,3.3000000000000003,3.3000000000000003,0.0,0.0,0.0,0.0,0.0,0.0,K
2.17,1.77,2.89,3.3000000000000003,3.3000000000000003,0.0,0.0,0.0,0.0,0.0,0.0,K
2.13,1.78,2.95,3.3000000000000003,3.3000000000000003,0.0,0.0,0.0,0.0,0.0,0.0,K
2.1,1.71,3.08,3.3000000000000003,3.3000000000000003,0.0,0.0,0.0,0.0,0.0,0.0,K
2.16,1.86,3.01,3.3000000000000003,3.3000000000000003,0.0,0.0,0.0,0.0,0.0,0.0,K
2.11,1.83,3.05,3.3000000000000003,3.3000000000000003,0.0,0.0,0.0,0.0,0.0,0.0,K
2.16,1.8399999999999999,3.06,3.3000000000000003,3.3000000000000003,0.0,0.0,0.0,0.0,0.0,0.0,K
2.16,1.78,3.02,3.3000000000000003,3.3000000000000003,0.0,0.0,0.0,0.0,0.0,0.0,K
2.17,1.8799999999999997,3.1400000000000006,3.3000000000000003,3.3000000000000003,0.0,0.0,0.0,0.0,0.0,0.0,K
2.17,1.8500000000000003,3.1400000000000006,3.3000000000000003,3.3000000000000003,0.0,0.0,0.0,0.0,0.0,0.0,K
2.06,1.7500000000000002,3.03,3.3000000000000003,3.3000000000000003,0.0,0.0,0.0,0.0,0.0,0.0,K
2.16,1.8900000000000001,3.16,3.3000000000000003,3.3000000000000003,0.0,0.0,0.0,0.0,0.0,0.0,K
2.15,1.82,3.01,3.3000000000000003,3.3000000000000003,0.0,0.0,0.0,0.0,0.0,0.0,K
2.17,1.8399999999999999,3.11,3.3000000000000003,3.3000000000000003,0.0,0.0,0.0,0.0,0.0,0.0,K
2.17,1.8399999999999999,3.1400000000000006,3.3000000000000003,3.3000000000000003,0.0,0.0,0.0,0.0,0.0,0.0,K
2.16,1.9,3.15,3.3000000000000003,3.3000000000000003,0.0,0.0,0.0,0.0,0.0,0.0,K
2.16,1.76,3.05,3.3000000000000003,3.3000000000000003,0.0,0.0,0.0,0.0,0.0,0.0,K
2.15,1.8799999999999997,3.11,3.3000000000000003,3.3000000000000003,0.0,0.0,0.0,0.0,0.0,0.0,K
2.11,1.86,3.03,3.3000000000000003,3.3000000000000003,0.0,0.0,0.0,0.0,0.0,0.0,K
2.15,1.8399999999999999,3.07,3.3000000000000003,3.3000000000000003,0.0,0.0,0.0,0.0,0.0,0.0,K
2.1,1.77,3.05,3.3000000000000003,3.3000000000000003,0.0,0.0,0.0,0.0,0.0,0.0,K
2.2,1.7500000000000002,2.93,3.3000000000000003,3.3000000000000003,0.0,0.0,0.0,0.0,0.0,0.0,K
2.06,1.91,3.08,3.3000000000000003,3.3000000000000003,0.0,0.0,0.0,0.0,0.0,0.0,K
2.1,1.78,2.86,3.3000000000000003,3.3000000000000003,0.0,0.0,0.0,0.0,0.0,0.0,K
2.11,1.9,3.12,3.3000000000000003,3.3000000000000003,0.0,0.0,0.0,0.0,0.0,0.0,K
2.11,1.91,2.86,3.3000000000000003,3.3000000000000003,0.0,0.0,0.0,0.0,0.0,0.0,K
2.15,1.71,3.02,3.3000000000000003,3.3000000000000003,0.0,0.0,0.0,0.0,0.0,0.0,K
2.19,1.73,3.02,3.3000000000000003,3.3000000000000003,0.0,0.0,0.0,0.0,0.0,0.0,K
2.14,1.83,3.02,3.3000000000000003,3.3000000000000003,0.0,0.0,0.0,0.0,0.0,0.0,K
2.14,1.82,3.0,3.3000000000000003,3.3000000000000003,0.0,0.0,0.0,0.0,0.0,0.0,K
2.16,1.9,3.07,3.3000000000000003,3.3000000000000003,0.0,0.0,0.0,0.0,0.0,0.0,K
2.15,1.8900000000000001,3.05,3.3000000000000003,3.3000000000000003,0.0,0.0,0.0,0.0,0.0,0.0,K
2.19,1.82,3.05,3.3000000000000003,3.3000000000000003,0.0,0.0,0.0,0.0,0.0,0.0,K
2.17,1.83,3.07,3.3000000000000003,3.3000000000000003,0.0,0.0,0.0,0.0,0.0,0.0,K
2.19,1.87,3.03,3.3000000000000003,3.3000000000000003,0.0,0.0,0.0,0.0,0.0,0.0,K
2.12,1.87,3.05,3.3000000000000003,3.3000000000000003,0.0,0.0,0.0,0.0,0.0,0.0,K
2.16,1.83,2.88,3.3000000000000003,3.3000000000000003,0.0,0.0,0.0,0.0,0.0,0.0,K
2.11,1.8500000000000003,3.15,3.3000000000000003,3.3000000000000003,0.0,0.0,0.0,0.0,0.0,0.0,K
2.17,1.8500000000000003,3.12,3.3000000000000003,3.3000000000000003,0.0,0.0,0.0,0.0,0.0,0.0,K
2.14,1.83,3.06,3.3000000000000003,3.3000000000000003,0.0,0.0,0.0,0.0,0.0,0.0,K
2.18,1.78,3.1300000000000003,3.3000000000000003,3.3000000000000003,0.0,0.0,0.0,0.0,0.0,0.0,K
2.22,1.87,3.07,3.3000000000000003,3.3000000000000003,0.0,0.0,0.0,0.0,0.0,0.0,K
2.11,1.71,3.1400000000000006,3.3000000000000003,3.3000000000000003,0.0,0.0,0.0,0.0,0.0,0.0,K
2.17,1.8500000000000003,3.04,3.3000000000000003,3.3000000000000003,0.0,0.0,0.0,0.0,0.0,0.0,K
2.11,1.9,3.03,3.3000000000000003,3.3000000000000003,0.0,0.0,0.0,0.0,0.0,0.0,K
2.21,1.87,3.1300000000000003,3.3000000000000003,3.3000000000000003,0.0,0.0,0.0,0.0,0.0,0.0,K
2.16,1.87,2.99,3.3000000000000003,3.3000000000000003,0.0,0.0,0.0,0.0,0.0,0.0,K
2.17,1.8799999999999997,3.06,3.3000000000000003,3.3000000000000003,0.0,0.0,0.0,0.0,0.0,0.0,K
2.18,1.96,3.15,3.3000000000000003,3.3000000000000003,0.0,0.0,0.0,0.0,0.0,0.0,K
2.15,1.8500000000000003,2.98,3.3000000000000003,3.3000000000000003,0.0,0.0,0.0,0.0,0.0,0.0,K
2.18,1.86,3.07,3.3000000000000003,3.3000000000000003,0.0,0.0,0.0,0.0,0.0,0.0,K
2.13,1.81,3.03,3.3000000000000003,3.3000000000000003,0.0,0.0,0.0,0.0,0.0,0.0,K
2.13,1.9,2.98,3.3000000000000003,3.3000000000000003,0.0,0.0,0.0,0.0,0.0,0.0,K
2.3,1.87,3.1,3.3000000000000003,3.3000000000000003,0.0,0.0,0.0,0.0,0.0,0.0,K
2.13,1.81,3.03,3.3000000000000003,3.3000000000000003,0.0,0.0,0.0,0.0,0.0,0.0,K
2.21,1.76,3.11,3.3000000000000003,3.3000000000000003,0.0,0.0,0.0,0.0,0.0,0.0,K
2.18,1.72,2.99,3.3000000000000003,3.3000000000000003,0.0,0.0,0.0,0.0,0.0,0.0,K
2.15,1.8799999999999997,3.09,3.3000000000000003,3.3000000000000003,0.0,0.0,0.0,0.0,0.0,0.0,K
2.09,1.81,2.79,3.3000000000000003,3.3000000000000003,0.0,0.0,0.0,0.0,0.0,0.0,K
2.1,1.79,2.98,3.3000000000000003,3.3000000000000003,0.0,0.0,0.0,0.0,0.0,0.0,K
2.16,1.9,3.06,3.3000000000000003,3.3000000000000003,0.0,0.0,0.0,0.0,0.0,0.0,K
2.16,1.8399999999999999,3.01,3.3000000000000003,3.3000000000000003,0.0,0.0,0.0,0.0,0.0,0.0,K
2.1,1.83,3.0,3.3000000000000003,3.3000000000000003,0.0,0.0,0.0,0.0,0.0,0.0,K
2.16,1.91,3.12,3.3000000000000003,3.3000000000000003,0.0,0.0,0.0,0.0,0.0,0.0,K
2.18,1.91,3.1,3.3000000000000003,3.3000000000000003,0.0,0.0,0.0,0.0,0.0,0.0,K
2.2,1.81,3.01,3.3000000000000003,3.3000000000000003,0.0,0.0,0.0,0.0,0.0,0.0,K
2.15,1.8799999999999997,2.93,3.3000000000000003,3.3000000000000003,0.0,0.0,0.0,0.0,0.0,0.0,K
2.18,1.8399999999999999,2.98,3.3000000000000003,3.3000000000000003,0.0,0.0,0.0,0.0,0.0,0.0,K
2.13,1.73,3.01,3.3000000000000003,3.3000000000000003,0.0,0.0,0.0,0.0,0.0,0.0,K
2.15,1.7399999999999998,2.81,3.3000000000000003,3.3000000000000003,0.0,0.0,0.0,0.0,0.0,0.0,K
2.2,1.8000000000000003,3.11,3.3000000000000003,3.3000000000000003,0.0,0.0,0.0,0.0,0.0,0.0,K
2.14,1.86,3.03,3.3000000000000003,3.3000000000000003,0.0,0.0,0.0,0.0,0.0,0.0,K
2.12,1.8900000000000001,3.06,3.3000000000000003,3.3000000000000003,0.0,0.0,0.0,0.0,0.0,0.0,K
2.18,1.8500000000000003,3.1400000000000006,3.3000000000000003,3.3000000000000003,0.0,0.0,0.0,0.0,0.0,0.0,K
2.18,1.8500000000000003,3.04,3.3000000000000003,3.3000000000000003,0.0,0.0,0.0,0.0,0.0,0.0,K
2.18,1.81,2.96,3.3000000000000003,3.3000000000000003,0.0,0.0,0.0,0.0,0.0,0.0,K
2.06,1.9,3.1300000000000003,3.3000000000000003,3.3000000000000003,0.0,0.0,0.0,0.0,0.0,0.0,K
2.12,1.8799999999999997,2.95,3.3000000000000003,3.3000000000000003,0.0,0.0,0.0,0.0,0.0,0.0,K
2.14,1.8900000000000001,3.04,3.3000000000000003,3.3000000000000003,0.0,0.0,0.0,0.0,0.0,0.0,K
2.15,1.73,2.87,3.3000000000000003,3.3000000000000003,0.0,0.0,0.0,0.0,0.0,0.0,K
2.15,1.8799999999999997,3.08,3.3000000000000003,3.3000000000000003,0.0,0.0,0.0,0.0,0.0,0.0,K
2.06,1.8500000000000003,3.1400000000000006,3.3000000000000003,3.3000000000000003,0.0,0.0,0.0,0.0,0.0,0.0,K
2.12,1.8799999999999997,3.04,3.3000000000000003,3.3000000000000003,0.0,0.0,0.0,0.0,0.0,0.0,K
2.12,1.8399999999999999,3.1400000000000006,3.3000000000000003,3.3000000000000003,0.0,0.0,0.0,0.0,0.0,0.0,K
2.12,1.73,3.09,3.3000000000000003,3.3000000000000003,0.0,0.0,0.0,0.0,0.0,0.0,K
2.12,1.9,2.99,3.3000000000000003,3.3000000000000003,0.0,0.0,0.0,0.0,0.0,0.0,K
2.11,1.8399999999999999,3.04,3.3000000000000003,3.3000000000000003,0.0,0.0,0.0,0.0,0.0,0.0,K
2.19,1.72,3.05,3.3000000000000003,3.3000000000000003,0.0,0.0,0.0,0.0,0.0,0.0,K
2.18,1.8900000000000001,3.1300000000000003,3.3000000000000003,3.3000000000000003,0.0,0.0,0.0,0.0,0.0,0.0,K
2.18,1.87,3.1400000000000006,3.3000000000000003,3.3000000000000003,0.0,0.0,0.0,0.0,0.0,0.0,K
2.15,1.91,2.95,3.3000000000000003,3.3000000000000003,0.0,0.0,0.0,0.0,0.0,0.0,K
2.17,1.82,2.93,3.3000000000000003,3.3000000000000003,0.0,0.0,0.0,0.0,0.0,0.0,K
2.12,1.82,3.05,3.3000000000000003,3.3000000000000003,0.0,0.0,0.0,0.0,0.0,0.0,K
2.22,1.8500000000000003,3.1,3.3000000000000003,3.3000000000000003,0.0,0.0,0.0,0.0,0.0,0.0,K
2.11,1.82,3.06,3.3000000000000003,3.3000000000000003,0.0,0.0,0.0,0.0,0.0,0.0,K
2.17,1.83,3.1400000000000006,3.3000000000000003,3.3000000000000003,0.0,0.0,0.0,0.0,0.0,0.0,K
2.09,1.86,3.07,3.3000000000000003,3.3000000000000003,0.0,0.0,0.0,0.0,0.0,0.0,K
2.19,1.7000000000000002,3.1300000000000003,3.3000000000000003,3.3000000000000003,0.0,0.0,0.0,0.0,0.0,0.0,K
2.19,1.82,3.04,3.3000000000000003,3.3000000000000003,0.0,0.0,0.0,0.0,0.0,0.0,K
2.1,1.71,3.07,3.3000000000000003,3.3000000000000003,0.0,0.0,0.0,0.0,0.0,0.0,K
2.2,1.8799999999999997,3.05,3.3000000000000003,3.3000000000000003,0.0,0.0,0.0,0.0,0.0,0.0,K
2.14,1.76,3.07,3.3000000000000003,3.3000000000000003,0.0,0.0,0.0,0.0,0.0,0.0,K
2.2,1.77,3.15,3.3000000000000003,3.3000000000000003,0.0,0.0,0.0,0.0,0.0,0.0,K
2.16,1.77,3.0,3.3000000000000003,3.3000000000000003,0.0,0.0,0.0,0.0,0.0,0.0,K
2.1,1.72,3.01,3.3000000000000003,3.3000000000000003,0.0,0.0,0.0,0.0,0.0,0.0,K
2.19,1.87,3.16,3.3000000000000003,3.3000000000000003,0.0,0.0,0.0,0.0,0.0,0.0,K
2.13,1.87,3.04,3.3000000000000003,3.3000000000000003,0.0,0.0,0.0,0.0,0.0,0.0,K
2.17,1.86,3.07,3.3000000000000003,3.3000000000000003,0.0,0.0,0.0,0.0,0.0,0.0,K
2.15,1.8000000000000003,3.15,3.3000000000000003,3.3000000000000003,0.0,0.0,0.0,0.0,0.0,0.0,K
2.11,1.8900000000000001,2.9,3.3000000000000003,3.3000000000000003,0.0,0.0,0.0,0.0,0.0,0.0,K
2.18,1.86,3.01,3.3000000000000003,3.3000000000000003,0.0,0.0,0.0,0.0,0.0,0.0,K
2.31,1.87,2.85,3.3000000000000003,3.3000000000000003,0.0,0.0,0.0,0.0,0.0,0.0,K
2.18,1.8799999999999997,3.12,3.3000000000000003,3.3000000000000003,0.0,0.0,0.0,0.0,0.0,0.0,K
2.14,1.8399999999999999,3.1400000000000006,3.3000000000000003,3.3000000000000003,0.0,0.0,0.0,0.0,0.0,0.0,K
2.1,1.8000000000000003,2.86,3.3000000000000003,3.3000000000000003,0.0,0.0,0.0,0.0,0.0,0.0,K
2.15,1.87,3.03,3.3000000000000003,3.3000000000000003,0.0,0.0,0.0,0.0,0.0,0.0,K
2.19,1.7500000000000002,3.02,3.3000000000000003,3.3000000000000003,0.0,0.0,0.0,0.0,0.0,0.0,K
2.21,1.87,3.16,3.3000000000000003,3.3000000000000003,0.0,0.0,0.0,0.0,0.0,0.0,K
2.19,1.79,2.99,3.3000000000000003,3.3000000000000003,0.0,0.0,0.0,0.0,0.0,0.0,K
2.16,1.8500000000000003,3.15,3.3000000000000003,3.3000000000000003,0.0,0.0,0.0,0.0,0.0,0.0,K
2.18,1.86,3.15,3.3000000000000003,3.3000000000000003,0.0,0.0,0.0,0.0,0.0,0.0,K
2.11,1.9,3.02,3.3000000000000003,3.3000000000000003,0.0,0.0,0.0,0.0,0.0,0.0,K
2.16,1.9,2.87,3.3000000000000003,3.3000000000000003,0.0,0.0,0.0,0.0,0.0,0.0,K
2.18,1.8900000000000001,3.09,3.3000000000000003,3.3000000000000003,0.0,0.0,0.0,0.0,0.0,0.0,K
2.17,1.8799999999999997,3.17,3.3000000000000003,3.3000000000000003,0.0,0.0,0.0,0.0,0.0,0.0,K
2.19,1.9,2.99,3.3000000000000003,3.3000000000000003,0.0,0.0,0.0,0.0,0.0,0.0,K
2.14,1.82,3.16,3.3000000000000003,3.3000000000000003,0.0,0.0,0.0,0.0,0.0,0.0,K
2.11,1.9,2.99,3.3000000000000003,3.3000000000000003,0.0,0.0,0.0,0.0,0.0,0.0,K
2.14,1.7000000000000002,3.16,3.3000000000000003,3.3000000000000003,0.0,0.0,0.0,0.0,0.0,0.0,K
2.18,1.8399999999999999,3.12,3.3000000000000003,3.3000000000000003,0.0,0.0,0.0,0.0,0.0,0.0,K
2.18,1.87,3.09,3.3000000000000003,3.3000000000000003,0.0,0.0,0.0,0.0,0.0,0.0,K
2.17,1.79,3.15,3.3000000000000003,3.3000000000000003,0.0,0.0,0.0,0.0,0.0,0.0,K
2.2,1.8500000000000003,3.08,3.3000000000000003,3.3000000000000003,0.0,0.0,0.0,0.0,0.0,0.0,K
2.18,1.86,2.85,3.3000000000000003,3.3000000000000003,0.0,0.0,0.0,0.0,0.0,0.0,K
2.17,1.77,3.16,3.3000000000000003,3.3000000000000003,0.0,0.0,0.0,0.0,0.0,0.0,K
2.16,1.8900000000000001,2.98,3.3000000000000003,3.3000000000000003,0.0,0.0,0.0,0.0,0.0,0.0,K
2.13,1.78,3.06,3.3000000000000003,3.3000000000000003,0.0,0.0,0.0,0.0,0.0,0.0,K
2.16,1.8500000000000003,3.06,3.3000000000000003,3.3000000000000003,0.0,0.0,0.0,0.0,0.0,0.0,K
2.16,1.8799999999999997,3.16,3.3000000000000003,3.3000000000000003,0.0,0.0,0.0,0.0,0.0,0.0,K
2.23,1.81,2.94,3.3000000000000003,3.3000000000000003,0.0,0.0,0.0,0.0,0.0,0.0,K
2.11,1.86,3.08,3.3000000000000003,3.3000000000000003,0.0,0.0,0.0,0.0,0.0,0.0,K
2.21,1.71,3.1300000000000003,3.3000000000000003,3.3000000000000003,0.0,0.0,0.0,0.0,0.0,0.0,K
2.25,1.87,3.18,3.3000000000000003,3.3000000000000003,0.0,0.0,0.0,0.0,0.0,0.0,K
2.17,1.8799999999999997,3.15,3.3000000000000003,3.3000000000000003,0.0,0.0,0.0,0.0,0.0,0.0,K
2.14,1.83,3.06,3.3000000000000003,3.3000000000000003,0.0,0.0,0.0,0.0,0.0,0.0,K
2.18,1.7500000000000002,3.03,3.3000000000000003,3.3000000000000003,0.0,0.0,0.0,0.0,0.0,0.0,K
2.12,1.79,3.1400000000000006,3.3000000000000003,3.3000000000000003,0.0,0.0,0.0,0.0,0.0,0.0,K
2.19,1.8799999999999997,3.17,3.3000000000000003,3.3000000000000003,0.0,0.0,0.0,0.0,0.0,0.0,K
2.16,1.81,3.1400000000000006,3.3000000000000003,3.3000000000000003,0.0,0.0,0.0,0.0,0.0,0.0,K
2.13,1.87,3.15,3.3000000000000003,3.3000000000000003,0.0,0.0,0.0,0.0,0.0,0.0,K
2.09,1.77,3.18,3.3000000000000003,3.3000000000000003,0.0,0.0,0.0,0.0,0.0,0.0,K
2.17,1.71,2.94,3.3000000000000003,3.3000000000000003,0.0,0.0,0.0,0.0,0.0,0.0,K
2.09,1.78,3.07,3.3000000000000003,3.3000000000000003,0.0,0.0,0.0,0.0,0.0,0.0,K
2.16,1.87,2.97,3.3000000000000003,3.3000000000000003,0.0,0.0,0.0,0.0,0.0,0.0,K
2.01,1.8000000000000003,3.3000000000000003,3.3000000000000003,3.3000000000000003,0.0,0.0,0.0,0.0,0.0,0.0,K
2.1,1.72,3.03,3.3000000000000003,3.3000000000000003,0.0,0.0,0.0,0.0,0.0,0.0,K
2.16,1.71,3.07,3.3000000000000003,3.3000000000000003,0.0,0.0,0.0,0.0,0.0,0.0,K
2.29,1.71,3.03,3.3000000000000003,3.3000000000000003,0.0,0.0,0.0,0.0,0.0,0.0,K
2.1,1.86,3.08,3.3000000000000003,3.3000000000000003,0.0,0.0,0.0,0.0,0.0,0.0,K
2.12,1.82,3.08,3.3000000000000003,3.3000000000000003,0.0,0.0,0.0,0.0,0.0,0.0,K
2.2,1.8799999999999997,2.92,3.3000000000000003,3.3000000000000003,0.0,0.0,0.0,0.0,0.0,0.0,K
2.1,1.69,3.08,3.3000000000000003,3.3000000000000003,0.0,0.0,0.0,0.0,0.0,0.0,K
2.17,1.79,3.04,3.3000000000000003,3.3000000000000003,0.0,0.0,0.0,0.0,0.0,0.0,K
2.18,1.8900000000000001,3.16,3.3000000000000003,3.3000000000000003,0.0,0.0,0.0,0.0,0.0,0.0,K
2.15,1.79,3.15,3.3000000000000003,3.3000000000000003,0.0,0.0,0.0,0.0,0.0,0.0,K
2.17,1.77,3.03,3.3000000000000003,3.3000000000000003,0.0,0.0,0.0,0.0,0.0,0.0,K
2.16,1.87,3.15,3.3000000000000003,3.3000000000000003,0.0,0.0,0.0,0.0,0.0,0.0,K
2.17,1.8000000000000003,3.08,3.3000000000000003,3.3000000000000003,0.0,0.0,0.0,0.0,0.0,0.0,K
2.11,1.8500000000000003,3.18,3.3000000000000003,3.3000000000000003,0.0,0.0,0.0,0.0,0.0,0.0,K
2.13,1.8500000000000003,3.0,3.3000000000000003,3.3000000000000003,0.0,0.0,0.0,0.0,0.0,0.0,K
2.1,1.87,2.88,3.3000000000000003,3.3000000000000003,0.0,0.0,0.0,0.0,0.0,0.0,K
2.12,1.79,3.06,3.3000000000000003,3.3000000000000003,0.0,0.0,0.0,0.0,0.0,0.0,K
2.16,1.81,3.06,3.3000000000000003,3.3000000000000003,0.0,0.0,0.0,0.0,0.0,0.0,K
2.2,1.83,3.08,3.3000000000000003,3.3000000000000003,0.0,0.0,0.0,0.0,0.0,0.0,K
2.16,1.83,3.08,3.3000000000000003,3.3000000000000003,0.0,0.0,0.0,0.0,0.0,0.0,K
2.15,1.87,2.95,3.3000000000000003,3.3000000000000003,0.0,0.0,0.0,0.0,0.0,0.0,K
2.06,1.8500000000000003,3.16,3.3000000000000003,3.3000000000000003,0.0,0.0,0.0,0.0,0.0,0.0,K
2.06,1.87,3.1400000000000006,3.3000000000000003,3.3000000000000003,0.0,0.0,0.0,0.0,0.0,0.0,K
2.14,1.8000000000000003,2.86,3.3000000000000003,3.3000000000000003,0.0,0.0,0.0,0.0,0.0,0.0,K
2.15,1.86,3.09,3.3000000000000003,3.3000000000000003,0.0,0.0,0.0,0.0,0.0,0.0,K
2.13,1.76,3.07,3.3000000000000003,3.3000000000000003,0.0,0.0,0.0,0.0,0.0,0.0,K
2.12,1.8799999999999997,3.01,3.3000000000000003,3.3000000000000003,0.0,0.0,0.0,0.0,0.0,0.0,K
2.2,1.79,3.09,3.3000000000000003,3.3000000000000003,0.0,0.0,0.0,0.0,0.0,0.0,K
2.18,1.73,3.2099999999999995,3.3000000000000003,3.3000000000000003,0.0,0.0,0.0,0.0,0.0,0.0,K
2.15,1.83,3.11,3.3000000000000003,3.3000000000000003,0.0,0.0,0.0,0.0,0.0,0.0,K
2.17,1.8500000000000003,3.1300000000000003,3.3000000000000003,3.3000000000000003,0.0,0.0,0.0,0.0,0.0,0.0,K
2.1,1.8399999999999999,3.08,3.3000000000000003,3.3000000000000003,0.0,0.0,0.0,0.0,0.0,0.0,K
2.13,1.8799999999999997,2.9,3.3000000000000003,3.3000000000000003,0.0,0.0,0.0,0.0,0.0,0.0,K
2.06,1.8500000000000003,3.02,3.3000000000000003,3.3000000000000003,0.0,0.0,0.0,0.0,0.0,0.0,K
2.16,1.87,2.9,3.3000000000000003,3.3000000000000003,0.0,0.0,0.0,0.0,0.0,0.0,K
2.11,1.8900000000000001,3.18,3.3000000000000003,3.3000000000000003,0.0,0.0,0.0,0.0,0.0,0.0,K
2.15,1.8900000000000001,2.89,3.3000000000000003,3.3000000000000003,0.0,0.0,0.0,0.0,0.0,0.0,K
2.15,1.87,2.98,3.3000000000000003,3.3000000000000003,0.0,0.0,0.0,0.0,0.0,0.0,K
2.12,1.8399999999999999,3.12,3.3000000000000003,3.3000000000000003,0.0,0.0,0.0,0.0,0.0,0.0,K
2.14,1.9,3.17,3.3000000000000003,3.3000000000000003,0.0,0.0,0.0,0.0,0.0,0.0,K
2.11,1.78,3.02,3.3000000000000003,3.3000000000000003,0.0,0.0,0.0,0.0,0.0,0.0,K
2.15,1.82,3.07,3.3000000000000003,3.3000000000000003,0.0,0.0,0.0,0.0,0.0,0.0,K
2.2,1.83,2.88,3.3000000000000003,3.3000000000000003,0.0,0.0,0.0,0.0,0.0,0.0,K
2.09,1.8900000000000001,3.03,3.3000000000000003,3.3000000000000003,0.0,0.0,0.0,0.0,0.0,0.0,K
2.18,1.8399999999999999,3.03,3.3000000000000003,3.3000000000000003,0.0,0.0,0.0,0.0,0.0,0.0,K
2.23,1.8500000000000003,3.09,3.3000000000000003,3.3000000000000003,0.0,0.0,0.0,0.0,0.0,0.0,K
2.17,1.81,2.96,3.3000000000000003,3.3000000000000003,0.0,0.0,0.0,0.0,0.0,0.0,K
2.18,1.78,2.97,3.3000000000000003,3.3000000000000003,0.0,0.0,0.0,0.0,0.0,0.0,K
2.18,1.79,2.97,3.3000000000000003,3.3000000000000003,0.0,0.0,0.0,0.0,0.0,0.0,K
2.06,1.78,2.97,3.3000000000000003,3.3000000000000003,0.0,0.0,0.0,0.0,0.0,0.0,K
2.1,1.7000000000000002,3.2199999999999998,3.3000000000000003,3.3000000000000003,0.0,0.0,0.0,0.0,0.0,0.0,K
2.2,1.8399999999999999,3.1,3.3000000000000003,3.3000000000000003,0.0,0.0,0.0,0.0,0.0,0.0,K
2.13,1.8399999999999999,3.18,3.3000000000000003,3.3000000000000003,0.0,0.0,0.0,0.0,0.0,0.0,K
2.1,1.8900000000000001,3.03,3.3000000000000003,3.3000000000000003,0.0,0.0,0.0,0.0,0.0,0.0,K
2.14,1.9,3.12,3.3000000000000003,3.3000000000000003,0.0,0.0,0.0,0.0,0.0,0.0,K
2.23,1.8500000000000003,3.07,3.3000000000000003,3.3000000000000003,0.0,0.0,0.0,0.0,0.0,0.0,K
2.14,1.8799999999999997,2.91,3.3000000000000003,3.3000000000000003,0.0,0.0,0.0,0.0,0.0,0.0,K
2.11,1.86,3.04,3.3000000000000003,3.3000000000000003,0.0,0.0,0.0,0.0,0.0,0.0,K
2.16,1.71,3.15,3.3000000000000003,3.3000000000000003,0.0,0.0,0.0,0.0,0.0,0.0,K
2.15,1.8900000000000001,3.18,3.3000000000000003,3.3000000000000003,0.0,0.0,0.0,0.0,0.0,0.0,K
2.16,1.82,3.18,3.3000000000000003,3.3000000000000003,0.0,0.0,0.0,0.0,0.0,0.0,K
2.16,1.7399999999999998,3.15,3.3000000000000003,3.3000000000000003,0.0,0.0,0.0,0.0,0.0,0.0,K
2.21,1.7399999999999998,2.94,3.3000000000000003,3.3000000000000003,0.0,0.0,0.0,0.0,0.0,0.0,K
2.06,1.91,3.11,3.3000000000000003,3.3000000000000003,0.0,0.0,0.0,0.0,0.0,0.0,K
2.12,1.77,3.2,3.3000000000000003,3.3000000000000003,0.0,0.0,0.0,0.0,0.0,0.0,K
2.11,1.81,3.2099999999999995,3.3000000000000003,3.3000000000000003,0.0,0.0,0.0,0.0,0.0,0.0,K
2.1,1.73,3.04,3.3000000000000003,3.3000000000000003,0.0,0.0,0.0,0.0,0.0,0.0,K
2.11,1.83,3.1400000000000006,3.3000000000000003,3.3000000000000003,0.0,0.0,0.0,0.0,0.0,0.0,K
2.14,1.86,3.15,3.3000000000000003,3.3000000000000003,0.0,0.0,0.0,0.0,0.0,0.0,K
2.19,1.87,3.2099999999999995,3.3000000000000003,3.3000000000000003,0.0,0.0,0.0,0.0,0.0,0.0,K
2.06,1.86,3.15,3.3000000000000003,3.3000000000000003,0.0,0.0,0.0,0.0,0.0,0.0,K
2.14,1.8799999999999997,3.2099999999999995,3.3000000000000003,3.3000000000000003,0.0,0.0,0.0,0.0,0.0,0.0,K
2.1,1.9299999999999997,3.15,3.3000000000000003,3.3000000000000003,0.0,0.0,0.0,0.0,0.0,0.0,K
2.06,1.83,3.12,3.3000000000000003,3.3000000000000003,0.0,0.0,0.0,0.0,0.0,0.0,K
2.08,1.95,3.08,3.3000000000000003,3.3000000000000003,0.0,0.0,0.0,0.0,0.0,0.0,K
2.09,1.83,3.25,3.3000000000000003,3.3000000000000003,0.0,0.0,0.0,0.0,0.0,0.0,K
2.17,1.8399999999999999,3.2400000000000007,3.3000000000000003,3.3000000000000003,0.0,0.0,0.0,0.0,0.0,0.0,K
2.14,1.94,3.1300000000000003,3.3000000000000003,3.3000000000000003,0.0,0.0,0.0,0.0,0.0,0.0,K
2.06,1.96,3.19,3.3000000000000003,3.3000000000000003,0.0,0.0,0.0,0.0,0.0,0.0,K
2.2,1.8799999999999997,3.0,3.3000000000000003,3.3000000000000003,0.0,0.0,0.0,0.0,0.0,0.0,K
2.14,1.8900000000000001,3.06,3.3000000000000003,3.3000000000000003,0.0,0.0,0.0,0.0,0.0,0.0,K
2.1,1.91,3.25,3.3000000000000003,3.3000000000000003,0.0,0.0,0.0,0.0,0.0,0.0,K
2.11,1.91,3.2199999999999998,3.3000000000000003,3.3000000000000003,0.0,0.0,0.0,0.0,0.0,0.0,K
2.13,1.92,3.25,3.3000000000000003,3.3000000000000003,0.0,0.0,0.0,0.0,0.0,0.0,K
2.15,1.8000000000000003,3.08,3.3000000000000003,3.3000000000000003,0.0,0.0,0.0,0.0,0.0,0.0,K
2.17,1.95,3.12,3.3000000000000003,3.3000000000000003,0.0,0.0,0.0,0.0,0.0,0.0,K
2.15,1.86,3.16,3.3000000000000003,3.3000000000000003,0.0,0.0,0.0,0.0,0.0,0.0,K
2.16,1.87,3.2400000000000007,3.3000000000000003,3.3000000000000003,0.0,0.0,0.0,0.0,0.0,0.0,K
2.18,1.8399999999999999,3.1300000000000003,3.3000000000000003,3.3000000000000003,0.0,0.0,0.0,0.0,0.0,0.0,K
2.14,1.8900000000000001,3.11,3.3000000000000003,3.3000000000000003,0.0,0.0,0.0,0.0,0.0,0.0,K
2.08,1.79,3.06,3.3000000000000003,3.3000000000000003,0.0,0.0,0.0,0.0,0.0,0.0,K
2.18,1.91,3.09,3.3000000000000003,3.3000000000000003,0.0,0.0,0.0,0.0,0.0,0.0,K
2.15,1.8799999999999997,2.94,3.3000000000000003,3.3000000000000003,0.0,0.0,0.0,0.0,0.0,0.0,K
2.15,1.95,3.25,3.3000000000000003,3.3000000000000003,0.0,0.0,0.0,0.0,0.0,0.0,K
2.14,1.78,3.07,3.3000000000000003,3.3000000000000003,0.0,0.0,0.0,0.0,0.0,0.0,K
2.09,1.87,3.17,3.3000000000000003,3.3000000000000003,0.0,0.0,0.0,0.0,0.0,0.0,K
2.14,1.95,3.2099999999999995,3.3000000000000003,3.3000000000000003,0.0,0.0,0.0,0.0,0.0,0.0,K
2.16,1.87,3.16,3.3000000000000003,3.3000000000000003,0.0,0.0,0.0,0.0,0.0,0.0,K
2.14,1.8000000000000003,3.01,3.3000000000000003,3.3000000000000003,0.0,0.0,0.0,0.0,0.0,0.0,K
2.15,1.9299999999999997,3.16,3.3000000000000003,3.3000000000000003,0.0,0.0,0.0,0.0,0.0,0.0,K
2.1,1.82,3.16,3.3000000000000003,3.3000000000000003,0.0,0.0,0.0,0.0,0.0,0.0,K
2.14,1.8500000000000003,3.25,3.3000000000000003,3.3000000000000003,0.0,0.0,0.0,0.0,0.0,0.0,K
2.14,1.9,3.0,3.3000000000000003,3.3000000000000003,0.0,0.0,0.0,0.0,0.0,0.0,K
2.13,1.7500000000000002,2.94,3.3000000000000003,3.3000000000000003,0.0,0.0,0.0,0.0,0.0,0.0,K
2.13,1.9299999999999997,3.08,3.3000000000000003,3.3000000000000003,0.0,0.0,0.0,0.0,0.0,0.0,K
2.14,1.94,3.2400000000000007,3.3000000000000003,3.3000000000000003,0.0,0.0,0.0,0.0,0.0,0.0,K
2.06,1.81,3.09,3.3000000000000003,3.3000000000000003,0.0,0.0,0.0,0.0,0.0,0.0,K
2.14,1.76,2.99,3.3000000000000003,3.3000000000000003,0.0,0.0,0.0,0.0,0.0,0.0,K
2.12,1.87,3.06,3.3000000000000003,3.3000000000000003,0.0,0.0,0.0,0.0,0.0,0.0,K
2.11,1.9,3.25,3.3000000000000003,3.3000000000000003,0.0,0.0,0.0,0.0,0.0,0.0,K
2.08,1.94,3.15,3.3000000000000003,3.3000000000000003,0.0,0.0,0.0,0.0,0.0,0.0,K
2.1,1.81,3.15,3.3000000000000003,3.3000000000000003,0.0,0.0,0.0,0.0,0.0,0.0,K
2.16,1.87,3.2400000000000007,3.3000000000000003,3.3000000000000003,0.0,0.0,0.0,0.0,0.0,0.0,K
2.15,1.87,3.1,3.3000000000000003,3.3000000000000003,0.0,0.0,0.0,0.0,0.0,0.0,K
2.06,1.9299999999999997,2.98,3.3000000000000003,3.3000000000000003,0.0,0.0,0.0,0.0,0.0,0.0,K
2.15,1.94,3.25,3.3000000000000003,3.3000000000000003,0.0,0.0,0.0,0.0,0.0,0.0,K
2.17,1.95,3.17,3.3000000000000003,3.3000000000000003,0.0,0.0,0.0,0.0,0.0,0.0,K
2.13,1.8000000000000003,3.26,3.3000000000000003,3.3000000000000003,0.0,0.0,0.0,0.0,0.0,0.0,K
2.19,1.8900000000000001,3.1,3.3000000000000003,3.3000000000000003,0.0,0.0,0.0,0.0,0.0,0.0,K
2.15,1.8500000000000003,2.92,3.3000000000000003,3.3000000000000003,0.0,0.0,0.0,0.0,0.0,0.0,K
2.16,1.9299999999999997,3.25,3.3000000000000003,3.3000000000000003,0.0,0.0,0.0,0.0,0.0,0.0,K
2.2,1.9299999999999997,3.01,3.3000000000000003,3.3000000000000003,0.0,0.0,0.0,0.0,0.0,0.0,K
2.16,1.9299999999999997,2.95,3.3000000000000003,3.3000000000000003,0.0,0.0,0.0,0.0,0.0,0.0,K
2.14,1.94,3.2400000000000007,3.3000000000000003,3.3000000000000003,0.0,0.0,0.0,0.0,0.0,0.0,K
2.15,1.86,3.15,3.3000000000000003,3.3000000000000003,0.0,0.0,0.0,0.0,0.0,0.0,K
2.16,1.7500000000000002,2.98,3.3000000000000003,3.3000000000000003,0.0,0.0,0.0,0.0,0.0,0.0,K
2.09,1.8900000000000001,3.06,3.3000000000000003,3.3000000000000003,0.0,0.0,0.0,0.0,0.0,0.0,K
2.09,1.95,3.17,3.3000000000000003,3.3000000000000003,0.0,0.0,0.0,0.0,0.0,0.0,K
2.11,1.9299999999999997,3.2300000000000004,3.3000000000000003,3.3000000000000003,0.0,0.0,0.0,0.0,0.0,0.0,K
2.08,1.8900000000000001,3.01,3.3000000000000003,3.3000000000000003,0.0,0.0,0.0,0.0,0.0,0.0,K
2.25,1.8399999999999999,3.1300000000000003,3.3000000000000003,3.3000000000000003,0.0,0.0,0.0,0.0,0.0,0.0,K
2.13,1.94,2.99,3.3000000000000003,3.3000000000000003,0.0,0.0,0.0,0.0,0.0,0.0,K
2.08,1.8399999999999999,3.2,3.3000000000000003,3.3000000000000003,0.0,0.0,0.0,0.0,0.0,0.0,K
2.16,1.94,3.25,3.3000000000000003,3.3000000000000003,0.0,0.0,0.0,0.0,0.0,0.0,K
2.12,1.8900000000000001,2.99,3.3000000000000003,3.3000000000000003,0.0,0.0,0.0,0.0,0.0,0.0,K
2.15,1.92,2.93,3.3000000000000003,3.3000000000000003,0.0,0.0,0.0,0.0,0.0,0.0,K
2.06,1.8399999999999999,3.03,3.3000000000000003,3.3000000000000003,0.0,0.0,0.0,0.0,0.0,0.0,K
2.17,1.92,3.16,3.3000000000000003,3.3000000000000003,0.0,0.0,0.0,0.0,0.0,0.0,K
2.14,1.9299999999999997,3.19,3.3000000000000003,3.3000000000000003,0.0,0.0,0.0,0.0,0.0,0.0,K
2.11,1.94,3.17,3.3000000000000003,3.3000000000000003,0.0,0.0,0.0,0.0,0.0,0.0,K
2.15,1.9299999999999997,3.17,3.3000000000000003,3.3000000000000003,0.0,0.0,0.0,0.0,0.0,0.0,K
2.09,1.94,3.04,3.3000000000000003,3.3000000000000003,0.0,0.0,0.0,0.0,0.0,0.0,K
2.11,1.86,3.12,3.3000000000000003,3.3000000000000003,0.0,0.0,0.0,0.0,0.0,0.0,K
2.12,1.81,3.03,3.3000000000000003,3.3000000000000003,0.0,0.0,0.0,0.0,0.0,0.0,K
2.08,1.8900000000000001,3.1300000000000003,3.3000000000000003,3.3000000000000003,0.0,0.0,0.0,0.0,0.0,0.0,K
2.09,1.7500000000000002,3.15,3.3000000000000003,3.3000000000000003,0.0,0.0,0.0,0.0,0.0,0.0,K
2.15,1.95,3.06,3.3000000000000003,3.3000000000000003,0.0,0.0,0.0,0.0,0.0,0.0,K
2.16,1.8900000000000001,3.11,3.3000000000000003,3.3000000000000003,0.0,0.0,0.0,0.0,0.0,0.0,K
2.14,1.9,3.2199999999999998,3.3000000000000003,3.3000000000000003,0.0,0.0,0.0,0.0,0.0,0.0,K
2.17,1.97,3.2400000000000007,3.3000000000000003,3.3000000000000003,0.0,0.0,0.0,0.0,0.0,0.0,K
2.16,1.8799999999999997,3.1300000000000003,3.3000000000000003,3.3000000000000003,0.0,0.0,0.0,0.0,0.0,0.0,K
2.13,1.94,3.1,3.3000000000000003,3.3000000000000003,0.0,0.0,0.0,0.0,0.0,0.0,K
2.16,1.9299999999999997,3.09,3.3000000000000003,3.3000000000000003,0.0,0.0,0.0,0.0,0.0,0.0,K
2.12,1.87,3.01,3.3000000000000003,3.3000000000000003,0.0,0.0,0.0,0.0,0.0,0.0,K
2.13,1.8799999999999997,3.11,3.3000000000000003,3.3000000000000003,0.0,0.0,0.0,0.0,0.0,0.0,K
2.18,1.91,3.18,3.3000000000000003,3.3000000000000003,0.0,0.0,0.0,0.0,0.0,0.0,K
2.18,1.91,3.05,3.3000000000000003,3.3000000000000003,0.0,0.0,0.0,0.0,0.0,0.0,K
2.17,1.9299999999999997,3.01,3.3000000000000003,3.3000000000000003,0.0,0.0,0.0,0.0,0.0,0.0,K
2.16,1.81,2.91,3.3000000000000003,3.3000000000000003,0.0,0.0,0.0,0.0,0.0,0.0,K
2.18,1.8900000000000001,2.93,3.3000000000000003,3.3000000000000003,0.0,0.0,0.0,0.0,0.0,0.0,K
2.14,1.81,3.12,3.3000000000000003,3.3000000000000003,0.0,0.0,0.0,0.0,0.0,0.0,K
2.18,1.8900000000000001,2.96,3.3000000000000003,3.3000000000000003,0.0,0.0,0.0,0.0,0.0,0.0,K
2.09,1.82,3.2199999999999998,3.3000000000000003,3.3000000000000003,0.0,0.0,0.0,0.0,0.0,0.0,K
2.14,1.86,3.15,3.3000000000000003,3.3000000000000003,0.0,0.0,0.0,0.0,0.0,0.0,K
2.17,1.92,2.91,3.3000000000000003,3.3000000000000003,0.0,0.0,0.0,0.0,0.0,0.0,K
2.14,1.94,3.2400000000000007,3.3000000000000003,3.3000000000000003,0.0,0.0,0.0,0.0,0.0,0.0,K
2.12,1.8900000000000001,3.2400000000000007,3.3000000000000003,3.3000000000000003,0.0,0.0,0.0,0.0,0.0,0.0,K
2.16,1.91,3.06,3.3000000000000003,3.3000000000000003,0.0,0.0,0.0,0.0,0.0,0.0,K
2.19,1.9299999999999997,3.26,3.3000000000000003,3.3000000000000003,0.0,0.0,0.0,0.0,0.0,0.0,K
2.1,1.73,3.2099999999999995,3.3000000000000003,3.3000000000000003,0.0,0.0,0.0,0.0,0.0,0.0,K
2.08,1.87,2.97,3.3000000000000003,3.3000000000000003,0.0,0.0,0.0,0.0,0.0,0.0,K
2.09,1.94,3.09,3.3000000000000003,3.3000000000000003,0.0,0.0,0.0,0.0,0.0,0.0,K
2.18,1.9299999999999997,3.2300000000000004,3.3000000000000003,3.3000000000000003,0.0,0.0,0.0,0.0,0.0,0.0,K
2.15,1.91,3.16,3.3000000000000003,3.3000000000000003,0.0,0.0,0.0,0.0,0.0,0.0,K
2.1,1.8500000000000003,3.16,3.3000000000000003,3.3000000000000003,0.0,0.0,0.0,0.0,0.0,0.0,K
2.09,1.94,2.98,3.3000000000000003,3.3000000000000003,0.0,0.0,0.0,0.0,0.0,0.0,K
2.17,1.8900000000000001,3.11,3.3000000000000003,3.3000000000000003,0.0,0.0,0.0,0.0,0.0,0.0,K
2.1,1.87,2.96,3.3000000000000003,3.3000000000000003,0.0,0.0,0.0,0.0,0.0,0.0,K
2.1,1.94,3.08,3.3000000000000003,3.3000000000000003,0.0,0.0,0.0,0.0,0.0,0.0,K
2.12,1.86,3.1,3.3000000000000003,3.3000000000000003,0.0,0.0,0.0,0.0,0.0,0.0,K
2.16,1.79,2.9,3.3000000000000003,3.3000000000000003,0.0,0.0,0.0,0.0,0.0,0.0,K
2.15,1.9,3.1400000000000006,3.3000000000000003,3.3000000000000003,0.0,0.0,0.0,0.0,0.0,0.0,K
2.15,1.86,3.1,3.3000000000000003,3.3000000000000003,0.0,0.0,0.0,0.0,0.0,0.0,K
2.1,1.9299999999999997,3.1300000000000003,3.3000000000000003,3.3000000000000003,0.0,0.0,0.0,0.0,0.0,0.0,K
2.2,1.9,3.16,3.3000000000000003,3.3000000000000003,0.0,0.0,0.0,0.0,0.0,0.0,K
2.11,1.9,3.15,3.3000000000000003,3.3000000000000003,0.0,0.0,0.0,0.0,0.0,0.0,K
2.09,1.82,3.07,3.3000000000000003,3.3000000000000003,0.0,0.0,0.0,0.0,0.0,0.0,K
2.17,1.8799999999999997,2.97,3.3000000000000003,3.3000000000000003,0.0,0.0,0.0,0.0,0.0,0.0,K
2.17,1.9299999999999997,3.06,3.3000000000000003,3.3000000000000003,0.0,0.0,0.0,0.0,0.0,0.0,K
2.27,1.94,3.06,3.3000000000000003,3.3000000000000003,0.0,0.0,0.0,0.0,0.0,0.0,K
2.1,1.82,3.02,3.3000000000000003,3.3000000000000003,0.0,0.0,0.0,0.0,0.0,0.0,K
2.18,1.87,3.1300000000000003,3.3000000000000003,3.3000000000000003,0.0,0.0,0.0,0.0,0.0,0.0,K
2.19,1.86,2.93,3.3000000000000003,3.3000000000000003,0.0,0.0,0.0,0.0,0.0,0.0,K
2.17,1.94,3.2300000000000004,3.3000000000000003,3.3000000000000003,0.0,0.0,0.0,0.0,0.0,0.0,K
2.17,1.95,3.2300000000000004,3.3000000000000003,3.3000000000000003,0.0,0.0,0.0,0.0,0.0,0.0,K
2.09,1.9,3.2300000000000004,3.3000000000000003,3.3000000000000003,0.0,0.0,0.0,0.0,0.0,0.0,K
2.1,1.83,3.03,3.3000000000000003,3.3000000000000003,0.0,0.0,0.0,0.0,0.0,0.0,K
2.1,1.86,3.2,3.3000000000000003,3.3000000000000003,0.0,0.0,0.0,0.0,0.0,0.0,K
2.12,1.86,3.19,3.3000000000000003,3.3000000000000003,0.0,0.0,0.0,0.0,0.0,0.0,K
2.17,1.81,3.2400000000000007,3.3000000000000003,3.3000000000000003,0.0,0.0,0.0,0.0,0.0,0.0,K
2.12,1.8799999999999997,3.11,3.3000000000000003,3.3000000000000003,0.0,0.0,0.0,0.0,0.0,0.0,K
2.17,1.7399999999999998,3.2199999999999998,3.3000000000000003,3.3000000000000003,0.0,0.0,0.0,0.0,0.0,0.0,K
2.14,1.78,3.15,3.3000000000000003,3.3000000000000003,0.0,0.0,0.0,0.0,0.0,0.0,K
2.15,1.87,3.25,3.3000000000000003,3.3000000000000003,0.0,0.0,0.0,0.0,0.0,0.0,K
2.12,1.87,3.08,3.3000000000000003,3.3000000000000003,0.0,0.0,0.0,0.0,0.0,0.0,K
2.1,1.79,3.08,3.3000000000000003,3.3000000000000003,0.0,0.0,0.0,0.0,0.0,0.0,K
2.27,1.94,3.2300000000000004,3.3000000000000003,3.3000000000000003,0.0,0.0,0.0,0.0,0.0,0.0,K
2.14,1.8399999999999999,3.1300000000000003,3.3000000000000003,3.3000000000000003,0.0,0.0,0.0,0.0,0.0,0.0,K
2.15,1.95,3.2300000000000004,3.3000000000000003,3.3000000000000003,0.0,0.0,0.0,0.0,0.0,0.0,K
2.17,1.81,3.03,3.3000000000000003,3.3000000000000003,0.0,0.0,0.0,0.0,0.0,0.0,K
2.1,1.78,3.03,3.3000000000000003,3.3000000000000003,0.0,0.0,0.0,0.0,0.0,0.0,K
2.18,1.78,3.05,3.3000000000000003,3.3000000000000003,0.0,0.0,0.0,0.0,0.0,0.0,K
2.19,1.9,3.06,3.3000000000000003,3.3000000000000003,0.0,0.0,0.0,0.0,0.0,0.0,K
2.1,1.86,2.98,3.3000000000000003,3.3000000000000003,0.0,0.0,0.0,0.0,0.0,0.0,K
2.1,1.8799999999999997,3.19,3.3000000000000003,3.3000000000000003,0.0,0.0,0.0,0.0,0.0,0.0,K
2.16,1.87,3.0,3.3000000000000003,3.3000000000000003,0.0,0.0,0.0,0.0,0.0,0.0,K
2.11,1.8000000000000003,2.98,3.3000000000000003,3.3000000000000003,0.0,0.0,0.0,0.0,0.0,0.0,K
2.14,1.79,3.1400000000000006,3.3000000000000003,3.3000000000000003,0.0,0.0,0.0,0.0,0.0,0.0,K
2.1,1.77,3.0,3.3000000000000003,3.3000000000000003,0.0,0.0,0.0,0.0,0.0,0.0,K
2.19,1.95,3.2300000000000004,3.3000000000000003,3.3000000000000003,0.0,0.0,0.0,0.0,0.0,0.0,K
2.15,1.8799999999999997,3.06,3.3000000000000003,3.3000000000000003,0.0,0.0,0.0,0.0,0.0,0.0,K
2.18,1.8399999999999999,3.08,3.3000000000000003,3.3000000000000003,0.0,0.0,0.0,0.0,0.0,0.0,K
2.16,1.87,3.2400000000000007,3.3000000000000003,3.3000000000000003,0.0,0.0,0.0,0.0,0.0,0.0,K
2.13,1.8799999999999997,3.19,3.3000000000000003,3.3000000000000003,0.0,0.0,0.0,0.0,0.0,0.0,K
2.11,1.94,3.1300000000000003,3.3000000000000003,3.3000000000000003,0.0,0.0,0.0,0.0,0.0,0.0,K
2.15,1.94,3.04,3.3000000000000003,3.3000000000000003,0.0,0.0,0.0,0.0,0.0,0.0,K
2.21,1.8500000000000003,3.03,3.3000000000000003,3.3000000000000003,0.0,0.0,0.0,0.0,0.0,0.0,K
2.11,1.8000000000000003,3.08,3.3000000000000003,3.3000000000000003,0.0,0.0,0.0,0.0,0.0,0.0,K
2.17,1.8500000000000003,2.96,3.3000000000000003,3.3000000000000003,0.0,0.0,0.0,0.0,0.0,0.0,K
2.09,1.8000000000000003,3.05,3.3000000000000003,3.3000000000000003,0.0,0.0,0.0,0.0,0.0,0.0,K
2.27,1.86,3.01,3.3000000000000003,3.3000000000000003,0.0,0.0,0.0,0.0,0.0,0.0,K
2.17,1.8000000000000003,3.1400000000000006,3.3000000000000003,3.3000000000000003,0.0,0.0,0.0,0.0,0.0,0.0,K
2.17,1.9,3.17,3.3000000000000003,3.3000000000000003,0.0,0.0,0.0,0.0,0.0,0.0,K
2.31,1.8900000000000001,3.2099999999999995,3.3000000000000003,3.3000000000000003,0.0,0.0,0.0,0.0,0.0,0.0,K
2.19,1.87,3.2199999999999998,3.3000000000000003,3.3000000000000003,0.0,0.0,0.0,0.0,0.0,0.0,K
2.15,1.9,3.2099999999999995,3.3000000000000003,3.3000000000000003,0.0,0.0,0.0,0.0,0.0,0.0,K
2.18,1.8799999999999997,3.2199999999999998,3.3000000000000003,3.3000000000000003,0.0,0.0,0.0,0.0,0.0,0.0,K
