flex_1,flex_2,flex_3,flex_4,flex_5,accel_x,accel_y,accel_z,gyro_x,gyro_y,gyro_z,label
2.13,1.8900000000000001,2.55,3.3000000000000003,3.2,1132.0,16100.0,1564.0,-526.0,-1070.0,-458.0,V
2.13,1.79,2.59,3.2799999999999994,3.16,1276.0,16100.0,1556.0,-445.0,-709.0,-385.0,V
2.13,1.79,2.53,3.3000000000000003,3.17,1224.0,16104.0,1424.0,-448.0,-548.0,-262.0,V
2.13,1.76,2.61,3.3000000000000003,3.2199999999999998,1388.0,16068.0,1472.0,-518.0,-603.0,-205.0,V
2.13,1.79,2.56,3.3000000000000003,3.2199999999999998,1388.0,16052.0,1500.0,-586.0,-731.0,-114.0,V
2.13,1.7500000000000002,2.58,3.3000000000000003,3.2099999999999995,1252.0,16080.0,1568.0,-613.0,-914.0,-35.0,V
1.94,1.78,2.57,3.3000000000000003,3.2,988.0,16104.0,1356.0,-708.0,-1289.0,-33.0,V
2.13,1.76,2.57,3.3000000000000003,3.2300000000000004,1220.0,15972.0,1592.0,-892.0,-1900.0,-47.0,V
2.13,1.77,2.51,3.3000000000000003,3.16,1076.0,16032.0,1316.0,-789.0,-1484.0,14.0,V
2.11,1.71,2.59,3.3000000000000003,3.18,884.0,16088.0,1704.0,-875.0,-1735.0,68.0,V
2.15,1.76,2.59,3.3000000000000003,3.2199999999999998,1304.0,16128.0,1608.0,-1170.0,-2173.0,-61.0,V
2.15,1.76,2.56,3.3000000000000003,3.19,1488.0,16056.0,1876.0,-836.0,-821.0,234.0,V
2.15,1.69,2.6,3.16,3.2099999999999995,1312.0,15976.0,1904.0,-973.0,-1029.0,226.0,V
2.19,1.8000000000000003,2.6,3.3000000000000003,3.2400000000000007,1176.0,15920.0,1804.0,-785.0,-800.0,389.0,V
2.12,1.8000000000000003,2.56,3.3000000000000003,3.2,1188.0,15932.0,1684.0,-740.0,-734.0,532.0,V
2.15,1.79,2.6,3.3000000000000003,3.2199999999999998,1152.0,15908.0,1832.0,-764.0,-780.0,741.0,V
2.18,1.79,2.55,3.3000000000000003,3.2099999999999995,1016.0,16228.0,1824.0,-693.0,-960.0,794.0,V
2.11,1.79,2.56,3.3000000000000003,3.2,1252.0,15960.0,2116.0,-637.0,-916.0,844.0,V
2.13,1.69,2.61,3.3000000000000003,3.2099999999999995,1304.0,15988.0,1996.0,-665.0,-1161.0,838.0,V
2.18,1.71,2.54,3.3000000000000003,3.2,1240.0,15920.0,2348.0,-455.0,-767.0,926.0,V
2.09,1.79,2.56,3.3000000000000003,3.2300000000000004,1268.0,16028.0,2036.0,-226.0,-649.0,973.0,V
2.13,1.77,2.62,3.3000000000000003,3.2,1308.0,15960.0,2116.0,-270.0,-908.0,1105.0,V
2.13,1.7399999999999998,2.6,3.16,3.2199999999999998,1344.0,16024.0,1868.0,-259.0,-572.0,1291.0,V
2.11,1.79,2.49,3.3000000000000003,3.2199999999999998,1308.0,16156.0,1952.0,-303.0,-703.0,1524.0,V
2.12,1.79,2.57,3.3000000000000003,3.2400000000000007,1436.0,16072.0,1816.0,-225.0,-410.0,1918.0,V
2.15,1.8000000000000003,2.53,3.3000000000000003,3.2300000000000004,1428.0,16012.0,1824.0,-589.0,-1405.0,2020.0,V
2.13,1.8000000000000003,2.6,3.3000000000000003,3.2199999999999998,1692.0,16124.0,1828.0,-383.0,-625.0,2371.0,V
2.09,1.79,2.57,3.3000000000000003,3.2300000000000004,1896.0,16072.0,1748.0,-641.0,-1153.0,2262.0,V
2.15,1.7500000000000002,2.57,3.26,3.2199999999999998,2208.0,15844.0,1772.0,-234.0,-128.0,2568.0,V
2.12,1.73,2.57,3.3000000000000003,3.2,2452.0,15752.0,1296.0,-681.0,-1795.0,2419.0,V
2.09,1.8000000000000003,2.54,3.08,3.06,2716.0,15628.0,2036.0,-35.0,513.0,2888.0,V
2.15,1.79,2.61,3.3000000000000003,3.19,2680.0,15808.0,1668.0,-356.0,-131.0,2597.0,V
2.15,1.7399999999999998,2.6,3.3000000000000003,3.18,2712.0,15844.0,1860.0,-218.0,-75.0,2615.0,V
2.13,1.79,2.59,3.3000000000000003,3.2099999999999995,3044.0,15892.0,1732.0,-198.0,-174.0,2474.0,V
2.11,1.8000000000000003,2.62,3.3000000000000003,3.2199999999999998,3172.0,15724.0,1656.0,-196.0,-56.0,2403.0,V
2.12,1.79,2.62,3.3000000000000003,3.2099999999999995,3360.0,15804.0,1540.0,-378.0,-520.0,2083.0,V
2.13,1.77,2.59,3.08,3.18,3568.0,15836.0,1372.0,-370.0,-494.0,1970.0,V
2.11,1.79,2.5,3.3000000000000003,3.2300000000000004,3948.0,15656.0,1652.0,-444.0,-543.0,1711.0,V
2.13,1.79,2.6,3.3000000000000003,3.18,3856.0,15664.0,1848.0,-383.0,-437.0,1641.0,V
2.17,1.76,2.6,3.3000000000000003,3.15,3748.0,15672.0,1800.0,-530.0,-1067.0,1391.0,V
2.13,1.7399999999999998,2.57,3.3000000000000003,3.2300000000000004,3668.0,15612.0,1988.0,-464.0,-904.0,1344.0,V
2.15,1.78,2.57,3.3000000000000003,3.11,3684.0,15576.0,1940.0,-495.0,-1075.0,1184.0,V
2.09,1.8000000000000003,2.6,3.3000000000000003,3.17,3628.0,15776.0,1964.0,-387.0,-989.0,1180.0,V
2.13,1.7399999999999998,2.53,3.3000000000000003,3.26,3696.0,15600.0,2116.0,-564.0,-1263.0,969.0,V
2.15,1.77,2.57,3.3000000000000003,3.18,3840.0,15864.0,1924.0,-402.0,-664.0,933.0,V
2.13,1.8000000000000003,2.6,3.3000000000000003,3.2300000000000004,3824.0,15600.0,1992.0,-477.0,-900.0,815.0,V
2.13,1.77,2.51,3.25,3.2300000000000004,3768.0,15616.0,2012.0,-335.0,-789.0,887.0,V
2.15,1.76,2.62,3.16,3.2099999999999995,3744.0,15684.0,2000.0,-372.0,-1172.0,751.0,V
1.91,1.79,2.6,3.3000000000000003,3.17,3812.0,15608.0,1972.0,-160.0,-675.0,785.0,V
2.1,1.79,2.55,3.3000000000000003,3.2300000000000004,3864.0,15696.0,2076.0,-147.0,-979.0,687.0,V
2.11,1.79,2.46,3.3000000000000003,3.19,3936.0,15568.0,2188.0,212.0,-345.0,805.0,V
2.13,1.8000000000000003,2.51,3.3000000000000003,3.2400000000000007,3816.0,15700.0,1900.0,167.0,-435.0,827.0,V
2.11,1.7000000000000002,2.57,3.3000000000000003,3.2099999999999995,3996.0,15604.0,1644.0,243.0,-398.0,764.0,V
2.13,1.77,2.58,3.3000000000000003,3.2300000000000004,4152.0,15604.0,1644.0,328.0,-220.0,617.0,V
2.13,1.79,2.62,3.3000000000000003,3.17,4260.0,15540.0,1608.0,293.0,-400.0,439.0,V
2.15,1.71,2.6,3.3000000000000003,3.2199999999999998,4432.0,15488.0,1736.0,391.0,174.0,432.0,V
2.13,1.76,2.59,3.3000000000000003,3.2099999999999995,4556.0,15624.0,1668.0,376.0,32.0,375.0,V
2.13,1.79,2.57,3.3000000000000003,3.17,4408.0,15564.0,1440.0,407.0,261.0,240.0,V
2.13,1.8000000000000003,2.57,3.3000000000000003,3.17,4440.0,15564.0,1396.0,461.0,593.0,128.0,V
2.15,1.7500000000000002,2.63,3.3000000000000003,3.19,4308.0,15700.0,1200.0,389.0,490.0,-59.0,V
2.14,1.79,2.62,3.3000000000000003,3.17,4232.0,15612.0,1248.0,360.0,232.0,-270.0,V
2.15,1.8000000000000003,2.59,3.3000000000000003,3.2400000000000007,4200.0,15440.0,1180.0,313.0,244.0,-476.0,V
2.13,1.77,2.58,3.3000000000000003,3.06,4060.0,15652.0,1292.0,311.0,298.0,-594.0,V
2.1,1.79,2.58,3.3000000000000003,3.19,4000.0,15652.0,1312.0,175.0,39.0,-749.0,V
2.13,1.76,2.57,3.3000000000000003,3.2199999999999998,3752.0,15688.0,1140.0,169.0,105.0,-775.0,V
2.15,1.79,2.62,3.3000000000000003,3.25,3656.0,15676.0,1232.0,181.0,107.0,-800.0,V
2.18,1.79,2.49,3.3000000000000003,3.19,3532.0,15836.0,1304.0,156.0,363.0,-911.0,V
2.15,1.79,2.61,3.3000000000000003,3.2199999999999998,3488.0,15740.0,1248.0,289.0,582.0,-879.0,V
2.13,1.76,2.57,3.3000000000000003,3.2099999999999995,3308.0,15792.0,1228.0,214.0,711.0,-930.0,V
2.12,1.79,2.62,3.3000000000000003,3.2400000000000007,2984.0,15816.0,1232.0,111.0,488.0,-914.0,V
2.14,1.8000000000000003,2.62,3.3000000000000003,3.19,3176.0,15872.0,984.0,-167.0,-345.0,-1102.0,V
2.13,1.77,2.61,3.3000000000000003,3.2099999999999995,3296.0,15704.0,1180.0,130.0,377.0,-796.0,V
2.12,1.7500000000000002,2.62,3.3000000000000003,3.16,3252.0,15760.0,1252.0,-64.0,-137.0,-718.0,V
2.03,1.79,2.63,3.3000000000000003,3.19,3224.0,15780.0,1308.0,18.0,195.0,-456.0,V
2.14,1.76,2.63,3.3000000000000003,3.2400000000000007,3156.0,15864.0,1228.0,-6.0,406.0,-353.0,V
2.13,1.79,2.62,3.3000000000000003,3.2099999999999995,3100.0,15904.0,908.0,108.0,822.0,-219.0,V
2.15,1.79,2.58,3.3000000000000003,3.18,3252.0,15632.0,972.0,-83.0,634.0,-226.0,V
2.13,1.79,2.61,3.3000000000000003,3.2300000000000004,3196.0,15944.0,864.0,-162.0,770.0,-154.0,V
2.15,1.79,2.62,3.3000000000000003,3.2199999999999998,3164.0,15728.0,940.0,51.0,1549.0,33.0,V
2.11,1.8000000000000003,2.57,3.3000000000000003,3.2400000000000007,3164.0,15848.0,876.0,-282.0,597.0,-72.0,V
2.15,1.69,2.62,3.3000000000000003,3.2099999999999995,3288.0,15832.0,1056.0,-274.0,566.0,13.0,V
2.11,1.78,2.59,3.3000000000000003,3.2099999999999995,3388.0,15724.0,752.0,-386.0,348.0,36.0,V
2.11,1.79,2.62,3.1300000000000003,3.2099999999999995,3420.0,15760.0,1024.0,-499.0,244.0,29.0,V
2.13,1.79,2.61,3.3000000000000003,3.19,3424.0,15856.0,940.0,-586.0,154.0,-33.0,V
2.14,1.76,2.48,3.3000000000000003,3.2400000000000007,3500.0,15732.0,1108.0,-588.0,232.0,-118.0,V
2.19,1.76,2.59,3.3000000000000003,3.2099999999999995,3588.0,15696.0,1092.0,-629.0,404.0,-162.0,V
2.1,1.8000000000000003,2.63,3.3000000000000003,3.2199999999999998,3392.0,15836.0,976.0,-776.0,112.0,-245.0,V
2.13,1.8000000000000003,2.52,3.3000000000000003,3.18,3340.0,15692.0,1052.0,-774.0,157.0,-221.0,V
2.11,1.79,2.64,3.3000000000000003,3.2,3536.0,15832.0,856.0,-1044.0,-514.0,-346.0,V
2.15,1.79,2.61,3.3000000000000003,3.2199999999999998,3692.0,15744.0,1420.0,-1013.0,-371.0,-348.0,V
2.13,1.79,2.63,3.3000000000000003,3.18,3880.0,15656.0,1368.0,-1107.0,-354.0,-339.0,V
2.19,1.78,2.55,3.3000000000000003,3.2300000000000004,3700.0,15728.0,1660.0,-955.0,-112.0,-207.0,V
2.13,1.76,2.63,3.3000000000000003,3.2199999999999998,3464.0,15724.0,1568.0,-974.0,-136.0,-287.0,V
2.15,1.7399999999999998,2.58,3.3000000000000003,3.2099999999999995,3404.0,15684.0,1448.0,-789.0,183.0,-269.0,V
2.15,1.7399999999999998,2.56,3.3000000000000003,3.2,3288.0,15696.0,1668.0,-723.0,291.0,-304.0,V
2.15,1.7500000000000002,2.56,3.3000000000000003,3.2199999999999998,3224.0,15764.0,1604.0,-628.0,359.0,-344.0,V
2.13,1.76,2.6,3.3000000000000003,3.2099999999999995,3300.0,15816.0,2004.0,-530.0,520.0,-361.0,V
2.15,1.8000000000000003,2.61,3.3000000000000003,3.18,3196.0,15852.0,2144.0,-364.0,612.0,-271.0,V
2.13,1.77,2.63,3.3000000000000003,3.2099999999999995,3164.0,15804.0,2408.0,-248.0,551.0,-217.0,V
2.19,1.79,2.6,3.3000000000000003,3.2300000000000004,3300.0,15600.0,2140.0,45.0,901.0,-4.0,V
2.14,1.79,2.58,3.3000000000000003,3.17,3408.0,15672.0,2216.0,244.0,618.0,159.0,V
2.11,1.76,2.57,3.3000000000000003,3.2300000000000004,3424.0,15696.0,1996.0,457.0,799.0,319.0,V
2.13,1.7399999999999998,2.65,3.27,3.2,3460.0,15644.0,1860.0,625.0,725.0,332.0,V
2.09,1.69,2.6,3.3000000000000003,3.2300000000000004,3292.0,15776.0,1632.0,827.0,1023.0,332.0,V
2.11,1.79,2.63,3.26,3.17,3296.0,15740.0,1536.0,847.0,873.0,120.0,V
2.13,1.72,2.63,3.3000000000000003,3.2099999999999995,3504.0,15780.0,1300.0,1064.0,728.0,87.0,V
2.13,1.76,2.65,3.3000000000000003,3.2199999999999998,3732.0,15556.0,1192.0,978.0,81.0,-2.0,V
2.1,1.77,2.58,3.3000000000000003,3.2400000000000007,3992.0,15708.0,1416.0,991.0,472.0,-1.0,V
2.13,1.76,2.59,3.3000000000000003,3.2199999999999998,3816.0,15616.0,880.0,1009.0,773.0,81.0,V
2.13,1.79,2.61,3.3000000000000003,3.2300000000000004,3724.0,15652.0,760.0,681.0,318.0,-168.0,V
2.14,1.79,2.65,3.3000000000000003,3.2300000000000004,3464.0,15768.0,692.0,877.0,951.0,-81.0,V
2.15,1.7500000000000002,2.59,3.3000000000000003,3.2199999999999998,3644.0,15692.0,648.0,531.0,204.0,-368.0,V
2.12,1.77,2.61,3.3000000000000003,3.2099999999999995,3616.0,15652.0,528.0,660.0,660.0,-244.0,V
2.15,1.79,2.64,3.3000000000000003,3.2099999999999995,3644.0,15724.0,532.0,453.0,293.0,-275.0,V
2.17,1.76,2.65,3.3000000000000003,3.2099999999999995,3752.0,15640.0,384.0,370.0,534.0,-297.0,V
2.13,1.79,2.61,3.3000000000000003,3.2099999999999995,3684.0,15776.0,496.0,236.0,430.0,-296.0,V
2.14,1.79,2.64,3.3000000000000003,3.07,3556.0,15708.0,728.0,121.0,504.0,-139.0,V
2.13,1.79,2.62,3.3000000000000003,3.2099999999999995,3508.0,15820.0,516.0,-59.0,332.0,-27.0,V
2.13,1.77,2.67,3.3000000000000003,3.2300000000000004,3356.0,15824.0,600.0,-165.0,243.0,87.0,V
2.15,1.79,2.65,3.2099999999999995,3.2199999999999998,3392.0,15752.0,516.0,-276.0,93.0,143.0,V
2.13,1.79,2.64,3.3000000000000003,3.2300000000000004,3488.0,15720.0,468.0,-464.0,-146.0,122.0,V
2.19,1.77,2.63,3.3000000000000003,3.19,3688.0,15696.0,724.0,-462.0,115.0,120.0,V
2.14,1.79,2.54,3.3000000000000003,3.2099999999999995,3872.0,15664.0,852.0,-478.0,66.0,63.0,V
2.17,1.76,2.66,3.3000000000000003,3.2400000000000007,3932.0,15576.0,780.0,-554.0,59.0,86.0,V
2.11,1.73,2.62,3.3000000000000003,3.2,3912.0,15736.0,732.0,-574.0,36.0,17.0,V
2.09,1.7399999999999998,2.6,3.3000000000000003,3.25,3776.0,15644.0,868.0,-568.0,55.0,-14.0,V
2.13,1.79,2.58,3.3000000000000003,3.2099999999999995,3752.0,15664.0,704.0,-640.0,-221.0,-136.0,V
2.15,1.79,2.64,3.3000000000000003,3.16,3740.0,15636.0,860.0,-548.0,-91.0,-154.0,V
2.14,1.76,2.58,3.3000000000000003,3.2099999999999995,3940.0,15680.0,860.0,-765.0,-761.0,-391.0,V
2.1,1.79,2.63,3.3000000000000003,3.02,4032.0,15592.0,980.0,-667.0,-226.0,-373.0,V
2.14,1.79,2.67,3.3000000000000003,3.18,3896.0,15616.0,1056.0,-700.0,-561.0,-456.0,V
2.13,1.72,2.65,3.3000000000000003,3.2300000000000004,4048.0,15620.0,1132.0,-715.0,-550.0,-481.0,V
2.11,1.76,2.6,3.3000000000000003,3.2099999999999995,3708.0,15580.0,976.0,-646.0,-522.0,-433.0,V
2.12,1.79,2.64,3.3000000000000003,3.2300000000000004,3504.0,15660.0,1152.0,-693.0,-712.0,-469.0,V
2.13,1.72,2.67,3.3000000000000003,3.2099999999999995,3488.0,15772.0,980.0,-520.0,-400.0,-489.0,V
2.15,1.78,2.66,3.3000000000000003,3.16,3452.0,15696.0,1068.0,-595.0,-726.0,-580.0,V
2.13,1.69,2.62,3.3000000000000003,3.2199999999999998,3588.0,15676.0,1096.0,-403.0,-411.0,-523.0,V
2.13,1.69,2.66,3.3000000000000003,3.2400000000000007,3592.0,15748.0,1184.0,-495.0,-481.0,-557.0,V
2.15,1.76,2.64,3.3000000000000003,3.1,3480.0,15776.0,1284.0,-398.0,-236.0,-515.0,V
2.12,1.79,2.65,3.3000000000000003,3.2300000000000004,3488.0,15776.0,1268.0,-424.0,-663.0,-473.0,V
2.15,1.73,2.65,3.3000000000000003,3.15,3404.0,15760.0,1120.0,-380.0,-619.0,-401.0,V
2.16,1.68,2.63,3.3000000000000003,3.2,3328.0,15736.0,1100.0,-305.0,-423.0,-324.0,V
2.13,1.7500000000000002,2.68,3.3000000000000003,3.19,3172.0,15784.0,1180.0,-288.0,-552.0,-286.0,V
2.14,1.68,2.66,3.3000000000000003,3.16,3272.0,15768.0,1036.0,-302.0,-517.0,-289.0,V
2.13,1.76,2.65,3.3000000000000003,3.17,3280.0,15896.0,940.0,-201.0,-48.0,-293.0,V
2.13,1.7000000000000002,2.62,3.3000000000000003,3.2300000000000004,3304.0,15684.0,1000.0,-101.0,301.0,-249.0,V
2.09,1.77,2.66,3.3000000000000003,3.2,3192.0,15844.0,1008.0,-236.0,-184.0,-273.0,V
2.09,1.7399999999999998,2.65,3.3000000000000003,3.2,3312.0,15664.0,948.0,-60.0,85.0,-73.0,V
2.09,1.69,2.62,3.3000000000000003,3.15,3252.0,15660.0,876.0,-330.0,-406.0,-119.0,V
2.15,1.77,2.66,3.3000000000000003,3.2400000000000007,3272.0,15836.0,720.0,-214.0,-242.0,8.0,V
2.09,1.7500000000000002,2.6,3.3000000000000003,3.2400000000000007,3452.0,15840.0,988.0,-285.0,-347.0,-34.0,V
2.13,1.78,2.57,3.3000000000000003,3.2199999999999998,3612.0,15708.0,868.0,-274.0,-58.0,24.0,V
2.15,1.7399999999999998,2.67,3.15,3.2199999999999998,3576.0,15800.0,872.0,-307.0,31.0,95.0,V
2.14,1.7500000000000002,2.66,3.1400000000000006,3.2099999999999995,3592.0,15760.0,828.0,-310.0,108.0,152.0,V
2.13,1.7399999999999998,2.6,3.3000000000000003,3.2,3452.0,15728.0,960.0,-447.0,-113.0,150.0,V
2.11,1.76,2.55,3.3000000000000003,3.18,3532.0,15704.0,652.0,-460.0,-219.0,208.0,V
2.13,1.72,2.62,3.3000000000000003,3.2099999999999995,3672.0,15672.0,936.0,-630.0,-730.0,99.0,V
2.1,1.78,2.6,3.3000000000000003,3.19,3716.0,15656.0,672.0,-463.0,-426.0,177.0,V
2.14,1.72,2.65,3.3000000000000003,3.2,3812.0,15728.0,856.0,-601.0,-594.0,80.0,V
2.15,1.73,2.67,3.3000000000000003,3.2,3980.0,15712.0,772.0,-526.0,-299.0,59.0,V
2.12,1.7500000000000002,2.64,3.2300000000000004,3.2099999999999995,3880.0,15624.0,872.0,-529.0,-110.0,-5.0,V
2.15,1.7500000000000002,2.67,3.3000000000000003,3.18,3692.0,15652.0,956.0,-585.0,-247.0,-86.0,V
2.15,1.7500000000000002,2.62,3.3000000000000003,3.2300000000000004,3904.0,15612.0,884.0,-557.0,-213.0,-148.0,V
2.16,1.69,2.57,3.3000000000000003,3.2199999999999998,3788.0,15600.0,944.0,-594.0,-290.0,-163.0,V
2.15,1.7399999999999998,2.66,3.3000000000000003,3.2,3708.0,15624.0,940.0,-496.0,-264.0,-103.0,V
2.15,1.7500000000000002,2.62,3.3000000000000003,3.19,3796.0,15820.0,896.0,-585.0,-659.0,-248.0,V
2.15,1.7399999999999998,2.65,3.3000000000000003,3.17,3620.0,15708.0,808.0,-480.0,-148.0,-237.0,V
2.14,1.78,2.61,3.3000000000000003,3.2099999999999995,3800.0,15672.0,876.0,-572.0,-315.0,-359.0,V
2.11,1.78,2.63,3.3000000000000003,3.2300000000000004,3832.0,15600.0,912.0,-510.0,-320.0,-347.0,V
2.13,1.7000000000000002,2.65,3.3000000000000003,3.17,3800.0,15576.0,968.0,-501.0,-122.0,-340.0,V
2.09,1.78,2.65,3.3000000000000003,3.2099999999999995,3640.0,15652.0,924.0,-518.0,-219.0,-373.0,V
2.15,1.78,2.67,3.3000000000000003,3.2300000000000004,3608.0,15688.0,968.0,-423.0,-62.0,-302.0,V
2.13,1.78,2.66,3.3000000000000003,3.2300000000000004,3564.0,15720.0,932.0,-489.0,-223.0,-383.0,V
2.15,1.67,2.63,3.3000000000000003,3.18,3556.0,15672.0,748.0,-386.0,-38.0,-318.0,V
2.15,1.79,2.63,3.3000000000000003,3.15,3604.0,15600.0,932.0,-424.0,-29.0,-284.0,V
2.17,1.77,2.62,3.3000000000000003,3.25,3312.0,15908.0,744.0,-456.0,-153.0,-273.0,V
2.12,1.72,2.62,3.3000000000000003,3.2199999999999998,3468.0,15668.0,748.0,-435.0,-124.0,-299.0,V
2.13,1.7500000000000002,2.6,3.3000000000000003,3.2300000000000004,3496.0,15700.0,908.0,-511.0,-201.0,-284.0,V
2.1,1.7000000000000002,2.66,3.3000000000000003,3.2199999999999998,3460.0,15764.0,800.0,-561.0,-313.0,-232.0,V
2.15,1.73,2.67,3.3000000000000003,3.2099999999999995,3548.0,15776.0,732.0,-570.0,-298.0,-254.0,V
2.13,1.67,2.64,3.3000000000000003,3.2300000000000004,3476.0,15716.0,760.0,-542.0,-113.0,-180.0,V
2.1,1.78,2.63,3.3000000000000003,3.2300000000000004,3492.0,15704.0,800.0,-634.0,-239.0,-215.0,V
2.13,1.78,2.67,3.2099999999999995,3.2400000000000007,3444.0,15640.0,792.0,-573.0,-88.0,-105.0,V
2.14,1.7000000000000002,2.62,3.3000000000000003,3.18,3456.0,15756.0,840.0,-647.0,-175.0,-114.0,V
2.12,1.78,2.66,3.3000000000000003,3.2300000000000004,3380.0,15776.0,876.0,-598.0,-26.0,-148.0,V
2.19,1.71,2.55,3.3000000000000003,3.18,3672.0,15648.0,1068.0,-546.0,132.0,-163.0,V
2.13,1.78,2.67,3.3000000000000003,3.19,3568.0,15744.0,884.0,-576.0,75.0,-123.0,V
2.15,1.78,2.66,3.3000000000000003,3.2099999999999995,3724.0,15648.0,916.0,-674.0,-206.0,-185.0,V
2.14,1.73,2.63,3.3000000000000003,3.2099999999999995,3780.0,15756.0,964.0,-623.0,-122.0,-84.0,V
2.14,1.7399999999999998,2.66,3.3000000000000003,3.2400000000000007,3796.0,15624.0,1020.0,-767.0,-360.0,-170.0,V
2.15,1.71,2.63,3.3000000000000003,3.2199999999999998,3724.0,15668.0,1068.0,-653.0,-139.0,-192.0,V
2.15,1.7399999999999998,2.64,3.3000000000000003,3.19,3840.0,15656.0,1008.0,-739.0,-456.0,-255.0,V
2.13,1.77,2.66,3.3000000000000003,3.2099999999999995,3640.0,15700.0,968.0,-596.0,2.0,-235.0,V
2.13,1.7399999999999998,2.66,3.3000000000000003,3.18,3760.0,15756.0,972.0,-689.0,-259.0,-408.0,V
2.13,1.7500000000000002,2.66,3.3000000000000003,3.2400000000000007,3736.0,15708.0,1012.0,-603.0,-99.0,-395.0,V
2.15,1.73,2.67,3.3000000000000003,3.2099999999999995,3784.0,15780.0,1128.0,-653.0,-264.0,-510.0,V
2.11,1.7500000000000002,2.51,3.3000000000000003,3.2199999999999998,3700.0,15508.0,1072.0,-546.0,-66.0,-435.0,V
2.1,1.66,2.61,3.3000000000000003,3.2300000000000004,3580.0,15752.0,952.0,-717.0,-586.0,-492.0,V
2.1,1.78,2.59,3.3000000000000003,3.2099999999999995,3444.0,15740.0,1132.0,-571.0,-185.0,-444.0,V
2.12,1.67,2.64,3.3000000000000003,3.2400000000000007,3408.0,15744.0,848.0,-730.0,-497.0,-543.0,V
2.13,1.77,2.65,3.3000000000000003,3.2400000000000007,3308.0,15796.0,1024.0,-731.0,-540.0,-497.0,V
2.15,1.78,2.66,3.3000000000000003,3.2099999999999995,3564.0,15804.0,1004.0,-642.0,-211.0,-427.0,V
2.13,1.78,2.65,3.3000000000000003,3.2099999999999995,3560.0,15784.0,1152.0,-634.0,55.0,-391.0,V
2.13,1.76,2.67,3.15,3.2300000000000004,3264.0,15732.0,1120.0,-655.0,-156.0,-378.0,V
2.14,1.7000000000000002,2.64,3.3000000000000003,3.2300000000000004,3364.0,15656.0,1356.0,-640.0,-27.0,-357.0,V
2.13,1.73,2.64,3.3000000000000003,3.19,3316.0,15832.0,1056.0,-599.0,24.0,-286.0,V
2.11,1.77,2.62,3.3000000000000003,3.2,3452.0,15780.0,1108.0,-711.0,-363.0,-271.0,V
2.13,1.78,2.67,3.3000000000000003,3.17,3288.0,15724.0,972.0,-636.0,-164.0,-202.0,V
2.18,1.67,2.65,3.3000000000000003,3.2099999999999995,3444.0,15732.0,1140.0,-763.0,-391.0,-342.0,V
2.09,1.78,2.68,3.3000000000000003,3.2300000000000004,3480.0,15764.0,1072.0,-555.0,9.0,-244.0,V
2.1,1.78,2.62,3.3000000000000003,3.18,3692.0,15612.0,1196.0,-695.0,-277.0,-335.0,V
2.12,1.78,2.65,3.3000000000000003,3.2,3620.0,15744.0,1192.0,-545.0,209.0,-200.0,V
2.13,1.7399999999999998,2.68,3.3000000000000003,3.2199999999999998,3588.0,15752.0,1240.0,-684.0,-231.0,-227.0,V
2.09,1.77,2.66,3.17,3.2,3560.0,15592.0,1056.0,-587.0,-31.0,-203.0,V
2.13,1.78,2.63,3.3000000000000003,3.18,3528.0,15692.0,1264.0,-551.0,-124.0,-209.0,V
2.15,1.7399999999999998,2.64,3.3000000000000003,3.2099999999999995,3428.0,15812.0,1180.0,-647.0,-440.0,-311.0,V
2.17,1.76,2.68,3.08,3.2099999999999995,3552.0,15616.0,1400.0,-545.0,-87.0,-279.0,V
2.12,1.7399999999999998,2.66,3.3000000000000003,3.2300000000000004,3488.0,15828.0,1036.0,-572.0,-275.0,-302.0,V
2.15,1.68,2.68,3.3000000000000003,3.19,3544.0,15700.0,1188.0,-528.0,-72.0,-292.0,V
2.14,1.77,2.58,3.3000000000000003,3.2400000000000007,3332.0,15804.0,1092.0,-448.0,58.0,-242.0,V
2.12,1.78,2.69,3.3000000000000003,3.2,3280.0,15728.0,1192.0,-526.0,-83.0,-282.0,V
2.13,1.76,2.67,3.3000000000000003,3.19,3524.0,15740.0,1052.0,-436.0,-36.0,-206.0,V
2.17,1.77,2.67,3.3000000000000003,3.17,3332.0,15784.0,1116.0,-545.0,-226.0,-194.0,V
2.15,1.77,2.64,3.3000000000000003,3.2300000000000004,3376.0,15668.0,1208.0,-438.0,23.0,-118.0,V
2.11,1.7399999999999998,2.55,3.3000000000000003,3.2099999999999995,3472.0,15716.0,1256.0,-564.0,-365.0,-201.0,V
2.13,1.7000000000000002,2.65,3.3000000000000003,3.2199999999999998,3648.0,15708.0,1124.0,-415.0,193.0,-113.0,V
2.12,1.78,2.54,3.3000000000000003,3.17,3488.0,15632.0,1224.0,-305.0,498.0,-40.0,V
2.15,1.72,2.68,3.3000000000000003,3.2400000000000007,3396.0,15788.0,1144.0,-481.0,-209.0,-117.0,V
2.23,1.7399999999999998,2.67,3.3000000000000003,3.16,3484.0,15648.0,1280.0,-429.0,-33.0,-99.0,V
2.15,1.78,2.56,3.3000000000000003,3.17,3416.0,15724.0,1092.0,-439.0,-116.0,-145.0,V
2.15,1.7399999999999998,2.63,3.3000000000000003,3.2400000000000007,3432.0,15748.0,1176.0,-408.0,-123.0,-155.0,V
2.1,1.77,2.68,3.3000000000000003,3.18,3556.0,15796.0,1284.0,-402.0,-124.0,-138.0,V
2.09,1.77,2.67,3.3000000000000003,3.19,3484.0,15608.0,1252.0,-384.0,-67.0,-102.0,V
2.11,1.7399999999999998,2.66,3.3000000000000003,3.19,3528.0,15720.0,1056.0,-433.0,-121.0,-122.0,V
2.19,1.77,2.64,3.3000000000000003,3.01,3408.0,15676.0,1000.0,-346.0,75.0,-64.0,V
2.13,1.78,2.68,3.3000000000000003,3.2199999999999998,3452.0,15736.0,1272.0,-471.0,-386.0,-179.0,V
2.13,1.77,2.7,3.3000000000000003,3.2300000000000004,3416.0,15604.0,1228.0,-347.0,-98.0,-120.0,V
2.23,1.72,2.66,3.3000000000000003,3.2400000000000007,3612.0,15696.0,1192.0,-445.0,-302.0,-216.0,V
2.14,1.7399999999999998,2.62,3.3000000000000003,3.2300000000000004,3608.0,15816.0,1148.0,-370.0,-122.0,-180.0,V
2.09,1.78,2.67,3.3000000000000003,3.2199999999999998,3572.0,15752.0,1160.0,-467.0,-299.0,-245.0,V
2.14,1.72,2.56,3.3000000000000003,3.2,3568.0,15744.0,1212.0,-404.0,-100.0,-177.0,V
2.12,1.78,2.69,3.3000000000000003,3.2300000000000004,3484.0,15712.0,1192.0,-431.0,-279.0,-179.0,V
2.14,1.66,2.64,3.3000000000000003,3.2099999999999995,3400.0,15680.0,1072.0,-400.0,-265.0,-201.0,V
2.13,1.77,2.63,3.3000000000000003,3.2199999999999998,3532.0,15680.0,1160.0,-401.0,-350.0,-188.0,V
2.13,1.77,2.67,3.3000000000000003,3.19,3524.0,15704.0,1160.0,-430.0,-266.0,-165.0,V
2.16,1.76,2.61,3.3000000000000003,3.12,3592.0,15704.0,1128.0,-368.0,-228.0,-138.0,V
2.13,1.77,2.64,3.3000000000000003,3.2400000000000007,3576.0,15788.0,1044.0,-409.0,-288.0,-186.0,V
2.14,1.77,2.69,3.3000000000000003,3.25,3452.0,15624.0,1180.0,-318.0,43.0,-72.0,V
2.11,1.73,2.62,3.3000000000000003,3.2300000000000004,3480.0,15620.0,1132.0,-524.0,-458.0,-176.0,V
2.13,1.77,2.67,3.3000000000000003,3.17,3388.0,15704.0,1164.0,-400.0,-153.0,-75.0,V
2.12,1.78,2.62,3.29,3.2300000000000004,3688.0,15744.0,1156.0,-522.0,-504.0,-165.0,V
2.12,1.7000000000000002,2.64,3.25,3.11,3568.0,15604.0,1136.0,-467.0,-264.0,-96.0,V
2.1,1.77,2.69,3.3000000000000003,3.2,3588.0,15764.0,1108.0,-452.0,-282.0,-95.0,V
2.1,1.77,2.64,3.3000000000000003,3.16,3540.0,15812.0,1152.0,-413.0,-126.0,-83.0,V
2.1,1.77,2.65,3.3000000000000003,3.2400000000000007,3372.0,15740.0,1152.0,-507.0,-369.0,-134.0,V
2.15,1.76,2.67,3.3000000000000003,3.2,3588.0,15720.0,1164.0,-440.0,-286.0,-117.0,V
2.12,1.7500000000000002,2.59,3.3000000000000003,3.17,3552.0,15728.0,1168.0,-479.0,-449.0,-91.0,V
2.12,1.7399999999999998,2.68,3.3000000000000003,3.16,3572.0,15796.0,1300.0,-544.0,-599.0,-161.0,V
2.12,1.73,2.6,3.3000000000000003,3.2,3664.0,15652.0,1060.0,-348.0,-99.0,-121.0,V
2.12,1.77,2.67,3.3000000000000003,3.17,3712.0,15588.0,1256.0,-419.0,-244.0,-161.0,V
2.12,1.68,2.6,3.3000000000000003,3.2400000000000007,3652.0,15664.0,1304.0,-363.0,-139.0,-87.0,V
2.11,1.76,2.57,3.3000000000000003,3.2099999999999995,3356.0,15640.0,1092.0,-421.0,-208.0,-167.0,V
2.14,1.73,2.67,3.3000000000000003,3.18,3484.0,15728.0,1124.0,-405.0,-119.0,-196.0,V
2.12,1.7399999999999998,2.65,3.3000000000000003,3.2099999999999995,3496.0,15812.0,1140.0,-455.0,-491.0,-274.0,V
2.09,1.6399999999999997,2.7,3.3000000000000003,3.08,3600.0,15624.0,1248.0,-353.0,-346.0,-208.0,V
2.12,1.77,2.65,3.3000000000000003,3.2199999999999998,3624.0,15680.0,1244.0,-329.0,-246.0,-107.0,V
2.09,1.76,2.64,3.3000000000000003,3.2199999999999998,3696.0,15752.0,1248.0,-371.0,-344.0,-129.0,V
2.13,1.77,2.64,3.3000000000000003,3.11,3504.0,15680.0,968.0,-349.0,-328.0,-77.0,V
2.15,1.77,2.54,3.3000000000000003,3.2099999999999995,3656.0,15672.0,1020.0,-394.0,-277.0,-60.0,V
2.14,1.7399999999999998,2.66,3.3000000000000003,3.2,3468.0,15868.0,1072.0,-375.0,-164.0,-87.0,V
2.14,1.7399999999999998,2.7,3.3000000000000003,3.2099999999999995,3580.0,15676.0,1024.0,-343.0,-254.0,-122.0,V
2.11,1.77,2.62,3.3000000000000003,3.17,3580.0,15652.0,1244.0,-367.0,-124.0,-148.0,V
2.14,1.7500000000000002,2.7,3.3000000000000003,3.0,3604.0,15744.0,992.0,-326.0,-80.0,-127.0,V
2.15,1.7500000000000002,2.63,3.3000000000000003,3.2,3712.0,15572.0,1032.0,-296.0,-113.0,-114.0,V
2.13,1.73,2.66,3.3000000000000003,3.2400000000000007,3592.0,15748.0,996.0,-484.0,-416.0,-210.0,V
2.13,1.7399999999999998,2.64,3.3000000000000003,3.16,3504.0,15684.0,1044.0,-278.0,-55.0,-87.0,V
2.13,1.77,2.56,3.3000000000000003,2.99,3572.0,15660.0,1036.0,-477.0,-493.0,-265.0,V
2.14,1.7399999999999998,2.57,3.3000000000000003,3.2400000000000007,3668.0,15668.0,1028.0,-327.0,-126.0,-195.0,V
2.18,1.77,2.67,3.3000000000000003,3.2,3592.0,15788.0,1032.0,-289.0,-5.0,-208.0,V
2.09,1.77,2.69,3.3000000000000003,3.2199999999999998,3492.0,15720.0,1080.0,-357.0,-39.0,-225.0,V
2.12,1.77,2.68,3.3000000000000003,3.2199999999999998,3580.0,15696.0,936.0,-378.0,-181.0,-191.0,V
2.11,1.7399999999999998,2.67,3.3000000000000003,3.2300000000000004,3632.0,15672.0,988.0,-413.0,-319.0,-137.0,V
2.09,1.77,2.55,3.3000000000000003,3.06,3556.0,15744.0,952.0,-453.0,-409.0,-84.0,V
2.16,1.73,2.69,3.1400000000000006,3.2,3504.0,15652.0,1020.0,-479.0,-480.0,-98.0,V
2.15,1.79,2.67,3.3000000000000003,3.25,3476.0,15756.0,1016.0,-447.0,-257.0,-69.0,V
2.13,1.76,2.69,3.3000000000000003,3.2199999999999998,3400.0,15812.0,1100.0,-454.0,-98.0,-76.0,V
2.11,1.77,2.62,3.3000000000000003,3.2,3672.0,15752.0,1168.0,-397.0,-84.0,-100.0,V
2.09,1.76,2.63,3.3000000000000003,3.2099999999999995,3552.0,15808.0,976.0,-492.0,-288.0,-168.0,V
2.17,1.7500000000000002,2.63,3.3000000000000003,3.19,3656.0,15704.0,1016.0,-492.0,-371.0,-117.0,V
2.19,1.7399999999999998,2.68,3.3000000000000003,3.2300000000000004,3644.0,15708.0,932.0,-649.0,-857.0,-213.0,V
2.16,1.66,2.64,3.3000000000000003,3.2300000000000004,3676.0,15624.0,1024.0,-549.0,-527.0,-119.0,V
2.13,1.7399999999999998,2.59,3.3000000000000003,3.2400000000000007,3680.0,15772.0,856.0,-750.0,-1119.0,-210.0,V
2.15,1.7399999999999998,2.7,3.3000000000000003,3.18,3708.0,15700.0,1124.0,-650.0,-578.0,-226.0,V
2.1,1.77,2.62,3.3000000000000003,3.03,3700.0,15744.0,1016.0,-621.0,-200.0,-245.0,V
2.1,1.76,2.63,3.3000000000000003,3.2400000000000007,3596.0,15780.0,1028.0,-525.0,-59.0,-225.0,V
2.13,1.76,2.71,3.3000000000000003,3.16,3804.0,15564.0,1144.0,-631.0,-208.0,-324.0,V
2.14,1.7399999999999998,2.7,3.3000000000000003,3.2199999999999998,3564.0,15672.0,1056.0,-561.0,-166.0,-241.0,V
2.13,1.72,2.7,3.3000000000000003,3.2400000000000007,3640.0,15616.0,1204.0,-695.0,-566.0,-364.0,V
2.13,1.67,2.67,3.3000000000000003,3.2099999999999995,3636.0,15740.0,1236.0,-470.0,49.0,-226.0,V
2.13,1.66,2.58,3.3000000000000003,3.2300000000000004,3660.0,15740.0,1384.0,-692.0,-589.0,-303.0,V
2.18,1.76,2.66,3.1400000000000006,3.2,3576.0,15664.0,1176.0,-487.0,11.0,-171.0,V
2.19,1.77,2.62,3.3000000000000003,3.16,3340.0,15544.0,1364.0,-461.0,64.0,-134.0,V
2.13,1.77,2.62,3.1400000000000006,3.2300000000000004,3508.0,15712.0,1244.0,-473.0,-131.0,-160.0,V
2.13,1.77,2.65,3.3000000000000003,3.18,3332.0,15812.0,1088.0,-410.0,-145.0,-79.0,V
2.12,1.7399999999999998,2.59,3.3000000000000003,3.2099999999999995,3448.0,15832.0,1364.0,-441.0,-233.0,-105.0,V
2.12,1.77,2.64,3.3000000000000003,3.17,3536.0,15788.0,1168.0,-388.0,-370.0,-109.0,V
2.13,1.77,2.62,3.3000000000000003,3.2099999999999995,3656.0,15656.0,1128.0,-366.0,-226.0,-113.0,V
2.09,1.77,2.65,3.3000000000000003,3.2,3500.0,15768.0,1216.0,-454.0,-289.0,-187.0,V
2.1,1.77,2.63,3.3000000000000003,3.2,3628.0,15680.0,1248.0,-339.0,-41.0,-183.0,V
2.17,1.7399999999999998,2.68,3.3000000000000003,3.2199999999999998,3760.0,15592.0,1148.0,-353.0,-30.0,-250.0,V
2.11,1.77,2.68,3.12,3.2300000000000004,3608.0,15636.0,1132.0,-297.0,-71.0,-202.0,V
2.14,1.77,2.67,3.19,3.2400000000000007,3540.0,15716.0,1072.0,-309.0,-190.0,-165.0,V
2.13,1.7500000000000002,2.62,3.3000000000000003,3.2099999999999995,3700.0,15712.0,1064.0,-383.0,-344.0,-236.0,V
2.15,1.7399999999999998,2.63,3.3000000000000003,3.2199999999999998,3644.0,15712.0,1200.0,-286.0,-50.0,-227.0,V
2.15,1.66,2.65,3.3000000000000003,3.2199999999999998,3524.0,15832.0,1100.0,-316.0,-24.0,-212.0,V
2.15,1.77,2.62,3.3000000000000003,3.2,3596.0,15676.0,1076.0,-425.0,-232.0,-289.0,V
2.12,1.76,2.67,3.3000000000000003,3.2199999999999998,3680.0,15744.0,1152.0,-305.0,279.0,-198.0,V
2.12,1.77,2.67,3.3000000000000003,3.2199999999999998,3564.0,15672.0,868.0,-415.0,-46.0,-273.0,V
2.15,1.72,2.61,3.3000000000000003,3.2199999999999998,3612.0,16000.0,1312.0,-417.0,81.0,-276.0,V
2.15,1.7500000000000002,2.66,3.3000000000000003,3.2199999999999998,3428.0,15564.0,772.0,-524.0,-392.0,-208.0,V
2.13,1.7500000000000002,2.65,3.3000000000000003,3.19,3464.0,15748.0,880.0,-321.0,-36.0,-133.0,V
2.12,1.7399999999999998,2.62,3.3000000000000003,3.2400000000000007,3508.0,15640.0,956.0,-465.0,-154.0,-187.0,V
2.13,1.66,2.61,3.3000000000000003,3.19,3540.0,15628.0,884.0,-538.0,-335.0,-159.0,V
2.13,1.73,2.65,3.3000000000000003,3.2400000000000007,3688.0,15700.0,1088.0,-537.0,-310.0,-103.0,V
2.11,1.71,2.62,3.3000000000000003,3.2199999999999998,3640.0,15680.0,1080.0,-522.0,-93.0,-172.0,V
2.22,1.71,2.67,3.3000000000000003,3.2099999999999995,3628.0,15708.0,1068.0,-466.0,-126.0,-171.0,V
2.18,1.77,2.6,3.3000000000000003,3.2400000000000007,3700.0,15664.0,1276.0,-608.0,-351.0,-207.0,V
2.13,1.73,2.66,3.3000000000000003,3.2300000000000004,3684.0,15792.0,1176.0,-499.0,-147.0,-137.0,V
2.15,1.68,2.67,3.3000000000000003,3.2199999999999998,3664.0,15668.0,1112.0,-473.0,-171.0,-140.0,V
2.11,1.76,2.62,3.3000000000000003,3.2099999999999995,3628.0,15688.0,1120.0,-544.0,-349.0,-184.0,V
2.13,1.7500000000000002,2.68,3.3000000000000003,3.2,3608.0,15744.0,1392.0,-447.0,-300.0,-161.0,V
2.12,1.78,2.61,3.3000000000000003,3.2199999999999998,3644.0,15688.0,1168.0,-438.0,-197.0,-228.0,V
2.15,1.66,2.64,3.3000000000000003,3.2199999999999998,3552.0,15672.0,1016.0,-386.0,-81.0,-282.0,V
2.13,1.7399999999999998,2.67,3.3000000000000003,3.1400000000000006,3664.0,15720.0,1132.0,-395.0,-136.0,-290.0,V
2.11,1.76,2.67,3.3000000000000003,3.2199999999999998,3556.0,15612.0,1196.0,-414.0,-3.0,-251.0,V
2.11,1.72,2.56,3.3000000000000003,3.2199999999999998,3660.0,15760.0,1152.0,-364.0,-8.0,-200.0,V
2.15,1.71,2.68,3.3000000000000003,3.19,3496.0,15808.0,1044.0,-407.0,-232.0,-177.0,V
2.13,1.78,2.66,3.3000000000000003,3.2199999999999998,3604.0,15752.0,1204.0,-469.0,-483.0,-249.0,V
2.14,1.7399999999999998,2.6,3.3000000000000003,3.19,3608.0,15720.0,1176.0,-318.0,-159.0,-212.0,V
2.15,1.78,2.58,3.3000000000000003,3.25,3656.0,15800.0,1024.0,-408.0,-375.0,-229.0,V
2.12,1.72,2.66,3.3000000000000003,3.17,3708.0,15768.0,1000.0,-334.0,-320.0,-223.0,V
2.12,1.77,2.65,3.3000000000000003,3.2199999999999998,3536.0,15648.0,1028.0,-306.0,-62.0,-210.0,V
2.12,1.78,2.67,3.3000000000000003,3.2300000000000004,3572.0,15640.0,1012.0,-418.0,-194.0,-277.0,V
2.16,1.66,2.64,3.3000000000000003,3.19,3468.0,15656.0,1156.0,-312.0,-160.0,-132.0,V
2.14,1.71,2.6,3.3000000000000003,3.2099999999999995,3420.0,15740.0,1108.0,-489.0,-489.0,-215.0,V
2.14,1.7500000000000002,2.58,3.3000000000000003,3.25,3608.0,15784.0,1112.0,-411.0,-102.0,-138.0,V
2.14,1.7399999999999998,2.67,3.3000000000000003,3.19,3420.0,15756.0,1140.0,-468.0,-485.0,-146.0,V
2.11,1.68,2.67,3.3000000000000003,3.2300000000000004,3416.0,15692.0,1196.0,-455.0,-332.0,-163.0,V
2.12,1.78,2.56,3.3000000000000003,3.2099999999999995,3552.0,15748.0,1168.0,-458.0,-270.0,-177.0,V
2.09,1.77,2.64,3.3000000000000003,3.2300000000000004,3604.0,15732.0,1308.0,-408.0,-138.0,-89.0,V
2.12,1.78,2.75,3.3000000000000003,3.2199999999999998,3572.0,15780.0,1156.0,-432.0,-189.0,-88.0,V
2.12,1.77,2.64,3.3000000000000003,3.19,3776.0,15680.0,1160.0,-400.0,-39.0,-80.0,V
2.11,1.77,2.64,3.3000000000000003,3.2300000000000004,3740.0,15708.0,1144.0,-376.0,-98.0,-43.0,V
2.15,1.71,2.68,3.3000000000000003,3.17,3504.0,15736.0,1064.0,-348.0,-114.0,-14.0,V
2.09,1.78,2.66,3.3000000000000003,3.2300000000000004,3460.0,15748.0,808.0,-448.0,-272.0,-89.0,V
2.15,1.77,2.67,3.3000000000000003,3.2400000000000007,3624.0,15728.0,1120.0,-364.0,-125.0,-125.0,V
2.17,1.76,2.69,3.3000000000000003,3.2199999999999998,3588.0,15664.0,1160.0,-280.0,124.0,-111.0,V
2.12,1.7500000000000002,2.59,3.3000000000000003,3.18,3780.0,15796.0,1448.0,-425.0,6.0,-261.0,V
2.11,1.68,2.6,3.3000000000000003,3.2300000000000004,3600.0,15644.0,828.0,-295.0,282.0,-54.0,V
2.14,1.7399999999999998,2.67,3.3000000000000003,3.2099999999999995,3660.0,15684.0,980.0,-408.0,-131.0,-206.0,V
2.14,1.7500000000000002,2.67,3.3000000000000003,3.2099999999999995,3624.0,15804.0,1120.0,-285.0,194.0,-169.0,V
2.13,1.7500000000000002,2.67,3.3000000000000003,3.2,3572.0,15680.0,1088.0,-426.0,-205.0,-189.0,V
2.15,1.78,2.62,3.3000000000000003,3.2,3584.0,15680.0,1108.0,-435.0,-279.0,-132.0,V
2.13,1.86,2.62,3.3000000000000003,3.2400000000000007,3772.0,15792.0,1032.0,-403.0,-111.0,-172.0,V
2.11,1.77,2.63,3.3000000000000003,3.16,3692.0,15632.0,964.0,-294.0,180.0,-141.0,V
2.12,1.78,2.67,3.3000000000000003,3.18,3592.0,15672.0,860.0,-389.0,-97.0,-166.0,V
2.15,1.78,2.67,3.3000000000000003,3.2400000000000007,3624.0,15744.0,1044.0,-365.0,-63.0,-161.0,V
2.13,1.7500000000000002,2.67,3.1300000000000003,3.2199999999999998,3764.0,15720.0,1052.0,-385.0,-85.0,-191.0,V
2.14,1.77,2.67,3.04,3.2400000000000007,3520.0,15732.0,1008.0,-360.0,-223.0,-199.0,V
2.13,1.72,2.63,3.3000000000000003,3.2300000000000004,3648.0,15720.0,1168.0,-437.0,-277.0,-212.0,V
2.13,1.7399999999999998,2.55,3.3000000000000003,3.2400000000000007,3620.0,15732.0,1164.0,-404.0,-48.0,-210.0,V
2.14,1.69,2.64,3.3000000000000003,3.2400000000000007,3648.0,15688.0,996.0,-404.0,-52.0,-239.0,V
2.13,1.7500000000000002,2.66,3.3000000000000003,3.2099999999999995,3620.0,15688.0,956.0,-372.0,34.0,-229.0,V
2.14,1.7399999999999998,2.62,3.3000000000000003,3.2199999999999998,3608.0,15616.0,912.0,-374.0,-158.0,-196.0,V
2.15,1.73,2.59,3.3000000000000003,3.2400000000000007,3604.0,15724.0,964.0,-391.0,-116.0,-215.0,V
2.13,1.78,2.57,3.3000000000000003,3.2099999999999995,3576.0,15760.0,908.0,-435.0,-245.0,-279.0,V
2.15,1.77,2.71,3.3000000000000003,3.2099999999999995,3608.0,15600.0,948.0,-364.0,68.0,-190.0,V
2.14,1.79,2.52,3.3000000000000003,3.2199999999999998,3532.0,15716.0,1092.0,-464.0,-143.0,-265.0,V
2.13,1.72,2.54,3.3000000000000003,3.17,3712.0,15696.0,1012.0,-451.0,-186.0,-249.0,V
2.11,1.78,2.65,3.3000000000000003,3.2,3672.0,15672.0,988.0,-385.0,75.0,-236.0,V
2.18,1.7399999999999998,2.6,3.3000000000000003,3.1300000000000003,3508.0,15700.0,908.0,-410.0,-37.0,-255.0,V
2.15,1.77,2.66,3.3000000000000003,3.1,3608.0,15764.0,1076.0,-488.0,-243.0,-260.0,V
2.18,1.7500000000000002,2.63,3.29,3.2199999999999998,3660.0,15712.0,948.0,-477.0,-107.0,-282.0,V
2.17,1.73,2.67,3.3000000000000003,3.09,3548.0,15488.0,1176.0,-473.0,-187.0,-262.0,V
2.11,1.7500000000000002,2.6,3.3000000000000003,3.2300000000000004,3616.0,15788.0,992.0,-463.0,-135.0,-185.0,V
2.13,1.69,2.56,3.3000000000000003,3.2400000000000007,3824.0,15732.0,1196.0,-568.0,-260.0,-280.0,V
2.1,1.77,2.64,3.3000000000000003,3.18,3560.0,15580.0,988.0,-359.0,105.0,-221.0,V
2.13,1.78,2.64,3.3000000000000003,3.1300000000000003,3712.0,15604.0,1084.0,-432.0,-58.0,-224.0,V
2.13,1.7500000000000002,2.54,3.3000000000000003,3.25,3612.0,15804.0,1052.0,-469.0,-94.0,-260.0,V
2.16,1.72,2.66,3.3000000000000003,3.2199999999999998,3628.0,15620.0,964.0,-406.0,48.0,-175.0,V
2.17,1.7500000000000002,2.67,3.3000000000000003,3.2099999999999995,3708.0,15740.0,1032.0,-515.0,-151.0,-255.0,V
2.13,1.69,2.58,3.3000000000000003,3.2300000000000004,3620.0,15672.0,1144.0,-386.0,139.0,-218.0,V
2.15,1.7500000000000002,2.61,3.3000000000000003,3.2099999999999995,3516.0,15708.0,1104.0,-418.0,28.0,-251.0,V
2.13,1.67,2.58,3.3000000000000003,3.2199999999999998,3464.0,15716.0,1064.0,-410.0,-42.0,-189.0,V
2.19,1.78,2.58,3.3000000000000003,3.16,3608.0,15776.0,952.0,-555.0,-477.0,-350.0,V
2.11,1.78,2.64,3.3000000000000003,3.19,3540.0,15688.0,1116.0,-280.0,145.0,-217.0,V
2.14,1.78,2.58,3.3000000000000003,3.18,3696.0,15612.0,1216.0,-367.0,-67.0,-299.0,V
2.13,1.77,2.64,3.3000000000000003,3.2099999999999995,3788.0,15704.0,1228.0,-309.0,76.0,-197.0,V
2.13,1.78,2.62,3.3000000000000003,3.2300000000000004,3536.0,15816.0,1092.0,-308.0,79.0,-195.0,V
2.09,1.78,2.57,3.3000000000000003,3.2199999999999998,3600.0,15728.0,908.0,-267.0,303.0,-206.0,V
2.15,1.66,2.66,3.3000000000000003,3.2,3528.0,15784.0,964.0,-327.0,-64.0,-255.0,V
2.13,1.78,2.66,3.3000000000000003,3.17,3496.0,15744.0,1060.0,-350.0,-76.0,-190.0,V
2.14,1.77,2.67,3.3000000000000003,3.2300000000000004,3648.0,15640.0,896.0,-399.0,-99.0,-250.0,V
2.11,1.78,2.67,3.3000000000000003,3.19,3644.0,15720.0,1120.0,-336.0,82.0,-181.0,V
2.13,1.77,2.63,3.3000000000000003,3.2300000000000004,3716.0,15708.0,1200.0,-365.0,134.0,-159.0,V
2.11,1.77,2.62,3.3000000000000003,3.03,3564.0,15772.0,1024.0,-464.0,12.0,-145.0,V
2.12,1.72,2.62,3.2799999999999994,3.2199999999999998,3552.0,15772.0,804.0,-470.0,105.0,-142.0,V
2.17,1.76,2.67,3.3000000000000003,3.2400000000000007,3588.0,15664.0,916.0,-434.0,-8.0,-186.0,V
2.14,1.71,2.6,3.3000000000000003,3.2300000000000004,3576.0,15628.0,980.0,-500.0,-54.0,-220.0,V
2.15,1.71,2.66,3.29,3.2,3604.0,15692.0,1120.0,-560.0,-196.0,-257.0,V
2.08,1.7399999999999998,2.67,3.3000000000000003,3.16,3660.0,15708.0,992.0,-653.0,-298.0,-330.0,V
2.09,1.78,2.54,3.3000000000000003,3.2099999999999995,3716.0,15656.0,1212.0,-474.0,144.0,-281.0,V
2.17,1.73,2.61,3.3000000000000003,3.19,3656.0,15736.0,844.0,-553.0,7.0,-310.0,V
2.13,1.7399999999999998,2.64,3.3000000000000003,3.2099999999999995,3628.0,15724.0,1052.0,-568.0,-182.0,-290.0,V
2.14,1.69,2.62,3.3000000000000003,3.2099999999999995,3584.0,15612.0,1092.0,-564.0,-110.0,-295.0,V
2.11,1.7500000000000002,2.67,3.3000000000000003,3.25,3464.0,15704.0,1104.0,-513.0,10.0,-312.0,V
2.13,1.7399999999999998,2.62,3.3000000000000003,3.2,3676.0,15656.0,1120.0,-589.0,-434.0,-355.0,V
2.15,1.72,2.67,3.3000000000000003,3.2400000000000007,3648.0,15684.0,1176.0,-509.0,-109.0,-272.0,V
2.14,1.77,2.63,3.3000000000000003,3.2099999999999995,3428.0,15708.0,1096.0,-531.0,-161.0,-229.0,V
2.13,1.7500000000000002,2.62,3.3000000000000003,3.18,3564.0,15888.0,1044.0,-586.0,-386.0,-321.0,V
2.15,1.7399999999999998,2.59,3.3000000000000003,3.2300000000000004,3564.0,15616.0,1224.0,-458.0,136.0,-226.0,V
2.1,1.77,2.63,3.3000000000000003,3.2300000000000004,3376.0,15820.0,1180.0,-499.0,-9.0,-246.0,V
2.09,1.78,2.6,3.26,3.2199999999999998,3716.0,15692.0,1020.0,-458.0,-86.0,-224.0,V
2.14,1.7399999999999998,2.66,3.3000000000000003,3.01,3668.0,15704.0,1092.0,-422.0,86.0,-223.0,V
2.13,1.7000000000000002,2.63,3.27,3.2099999999999995,3404.0,15772.0,1140.0,-369.0,130.0,-129.0,V
2.13,1.76,2.6,3.3000000000000003,3.2400000000000007,3616.0,15700.0,1228.0,-428.0,-60.0,-168.0,V
2.11,1.76,2.66,3.3000000000000003,3.25,3624.0,15764.0,1096.0,-450.0,-121.0,-162.0,V
2.13,1.78,2.65,3.3000000000000003,3.2199999999999998,3592.0,15616.0,1208.0,-410.0,-37.0,-151.0,V
2.09,1.78,2.65,3.3000000000000003,3.05,3344.0,15752.0,980.0,-339.0,150.0,-160.0,V
2.11,1.6500000000000001,2.63,3.3000000000000003,3.2099999999999995,3496.0,15644.0,1216.0,-457.0,-214.0,-248.0,V
2.1,1.77,2.61,3.3000000000000003,3.19,3600.0,15732.0,1044.0,-408.0,-18.0,-222.0,V
2.11,1.7399999999999998,2.54,3.3000000000000003,3.2300000000000004,3584.0,15652.0,928.0,-430.0,-63.0,-242.0,V
2.13,1.77,2.68,3.3000000000000003,3.2199999999999998,3688.0,15732.0,1080.0,-465.0,-243.0,-260.0,V
2.15,1.67,2.65,3.3000000000000003,3.2300000000000004,3648.0,15752.0,1272.0,-410.0,-108.0,-246.0,V
2.13,1.71,2.66,3.3000000000000003,3.2199999999999998,3484.0,15748.0,1124.0,-476.0,-134.0,-248.0,V
2.1,1.71,2.65,3.3000000000000003,3.08,3604.0,15764.0,948.0,-424.0,12.0,-239.0,V
2.13,1.73,2.6,3.3000000000000003,3.2400000000000007,3476.0,15708.0,1108.0,-378.0,27.0,-148.0,V
2.1,1.66,2.56,3.3000000000000003,3.2,3492.0,15592.0,1156.0,-464.0,-39.0,-149.0,V
2.09,1.78,2.6,3.3000000000000003,3.2099999999999995,3512.0,15788.0,1076.0,-427.0,11.0,-134.0,V
2.1,1.7399999999999998,2.58,3.3000000000000003,3.2099999999999995,3584.0,15648.0,1068.0,-481.0,-139.0,-163.0,V
2.12,1.76,2.67,3.3000000000000003,3.15,3480.0,15668.0,1208.0,-402.0,19.0,-120.0,V
2.1,1.77,2.64,3.3000000000000003,3.19,3460.0,15744.0,1280.0,-466.0,-120.0,-152.0,V
2.15,1.7500000000000002,2.66,3.3000000000000003,3.2099999999999995,3516.0,15648.0,964.0,-508.0,-271.0,-184.0,V
2.13,1.77,2.6,3.3000000000000003,3.2199999999999998,3692.0,15620.0,1200.0,-450.0,-114.0,-92.0,V
2.13,1.77,2.61,3.3000000000000003,3.2300000000000004,3652.0,15724.0,1184.0,-507.0,-162.0,-143.0,V
2.12,1.78,2.61,3.3000000000000003,3.2300000000000004,3536.0,15724.0,1248.0,-404.0,52.0,-69.0,V
2.23,1.78,2.54,3.3000000000000003,3.17,3496.0,15656.0,1216.0,-455.0,-223.0,-124.0,V
2.13,1.77,2.67,3.3000000000000003,3.2099999999999995,3664.0,15732.0,1252.0,-455.0,-184.0,-192.0,V
2.17,1.78,2.65,3.3000000000000003,3.2,3576.0,15632.0,1136.0,-339.0,55.0,-179.0,V
2.06,1.7500000000000002,2.55,3.3000000000000003,3.2300000000000004,3604.0,15724.0,1180.0,-472.0,-257.0,-264.0,V
2.13,1.73,2.54,3.3000000000000003,3.19,3704.0,15744.0,1256.0,-452.0,-77.0,-202.0,V
2.13,1.77,2.65,3.3000000000000003,3.2099999999999995,3596.0,15796.0,1056.0,-482.0,-181.0,-189.0,V
2.09,1.73,2.59,3.3000000000000003,3.2099999999999995,3472.0,15752.0,1348.0,-383.0,23.0,-173.0,V
2.13,1.77,2.68,3.3000000000000003,3.2099999999999995,3560.0,15772.0,1036.0,-440.0,-207.0,-248.0,V
2.15,1.72,2.67,3.25,3.25,3632.0,15732.0,1240.0,-333.0,-62.0,-170.0,V
2.15,1.72,2.67,3.3000000000000003,3.2199999999999998,3396.0,15684.0,1180.0,-378.0,-237.0,-239.0,V
2.14,1.72,2.67,3.3000000000000003,3.2400000000000007,3788.0,15728.0,1188.0,-309.0,92.0,-224.0,V
2.14,1.78,2.54,3.3000000000000003,3.2099999999999995,3608.0,15692.0,1080.0,-377.0,-119.0,-234.0,V
2.13,1.72,2.67,3.3000000000000003,3.18,3616.0,15728.0,1192.0,-309.0,42.0,-169.0,V
2.14,1.77,2.64,3.3000000000000003,3.26,3560.0,15812.0,1072.0,-445.0,-216.0,-212.0,V
2.15,1.72,2.66,3.3000000000000003,3.2199999999999998,3508.0,15696.0,1100.0,-329.0,44.0,-161.0,V
2.15,1.7000000000000002,2.55,3.3000000000000003,3.2400000000000007,3504.0,15608.0,940.0,-433.0,-241.0,-186.0,V
2.13,1.7399999999999998,2.61,3.3000000000000003,3.2199999999999998,3548.0,15712.0,944.0,-419.0,-140.0,-122.0,V
2.15,1.69,2.64,3.3000000000000003,3.15,3472.0,15708.0,984.0,-447.0,-103.0,-110.0,V
2.14,1.73,2.63,3.3000000000000003,3.2,3620.0,15728.0,1104.0,-417.0,18.0,-150.0,V
2.15,1.77,2.66,3.3000000000000003,3.2,3512.0,15696.0,1084.0,-462.0,-136.0,-145.0,V
2.15,1.67,2.55,3.3000000000000003,3.2199999999999998,3608.0,15616.0,1120.0,-470.0,-48.0,-90.0,V
2.13,1.7399999999999998,2.67,3.2199999999999998,3.19,3520.0,15772.0,976.0,-547.0,-236.0,-182.0,V
2.13,1.78,2.66,3.3000000000000003,3.2199999999999998,3596.0,15616.0,1188.0,-364.0,12.0,-167.0,V
2.15,1.7500000000000002,2.67,3.3000000000000003,3.2400000000000007,3708.0,15652.0,1092.0,-500.0,-331.0,-273.0,V
2.1,1.78,2.66,3.26,3.19,3676.0,15612.0,1060.0,-345.0,125.0,-135.0,V
2.15,1.7500000000000002,2.59,3.3000000000000003,3.2,3560.0,15808.0,900.0,-533.0,-337.0,-236.0,V
2.14,1.78,2.61,3.3000000000000003,3.16,3796.0,15720.0,1080.0,-420.0,-15.0,-203.0,V
2.15,1.78,2.64,3.26,3.2199999999999998,3524.0,15696.0,1048.0,-383.0,-46.0,-247.0,V
2.13,1.78,2.68,3.3000000000000003,3.2300000000000004,3644.0,15644.0,1100.0,-583.0,-484.0,-323.0,V
2.12,1.78,2.67,3.3000000000000003,3.2199999999999998,3656.0,15728.0,1076.0,-370.0,-74.0,-219.0,V
2.13,1.79,2.6,3.3000000000000003,3.19,3704.0,15676.0,1036.0,-514.0,-329.0,-327.0,V
2.14,1.7500000000000002,2.64,3.3000000000000003,3.2300000000000004,3564.0,15692.0,972.0,-372.0,113.0,-235.0,V
2.14,1.78,2.65,3.3000000000000003,3.17,3632.0,15688.0,1068.0,-474.0,-140.0,-241.0,V
2.2,1.78,2.59,3.3000000000000003,3.2400000000000007,3532.0,15740.0,1080.0,-434.0,106.0,-196.0,V
2.12,1.77,2.66,3.3000000000000003,3.2199999999999998,3388.0,15868.0,1104.0,-433.0,60.0,-192.0,V
2.15,1.77,2.53,3.3000000000000003,3.2300000000000004,3416.0,15724.0,940.0,-465.0,-133.0,-189.0,V
2.12,1.77,2.59,3.3000000000000003,3.17,3656.0,15632.0,1004.0,-572.0,-411.0,-270.0,V
2.13,1.7500000000000002,2.66,3.3000000000000003,3.2099999999999995,3792.0,15608.0,1028.0,-406.0,37.0,-196.0,V
2.12,1.78,2.66,3.3000000000000003,3.19,3596.0,15660.0,1236.0,-496.0,-230.0,-208.0,V
2.15,1.77,2.64,3.3000000000000003,3.19,3600.0,15712.0,1072.0,-423.0,8.0,-109.0,V
2.17,1.78,2.66,3.3000000000000003,3.2099999999999995,3624.0,15740.0,1148.0,-448.0,36.0,-177.0,V
2.12,1.78,2.63,3.3000000000000003,3.2400000000000007,3572.0,15796.0,1104.0,-369.0,98.0,-162.0,V
2.14,1.77,2.66,3.3000000000000003,3.19,3416.0,15756.0,1156.0,-391.0,1.0,-192.0,V
2.12,1.7500000000000002,2.62,3.3000000000000003,3.12,3616.0,15744.0,1144.0,-402.0,-99.0,-172.0,V
2.13,1.7500000000000002,2.6,3.3000000000000003,3.17,3540.0,15680.0,988.0,-415.0,-99.0,-176.0,V
2.13,1.77,2.65,3.3000000000000003,3.2,3544.0,15780.0,1004.0,-456.0,-136.0,-197.0,V
2.11,1.78,2.66,3.3000000000000003,3.2199999999999998,3584.0,15704.0,1036.0,-358.0,94.0,-147.0,V
2.11,1.78,2.64,3.3000000000000003,3.2,3584.0,15780.0,1124.0,-493.0,-224.0,-253.0,V
2.13,1.76,2.67,3.25,3.2099999999999995,3668.0,15736.0,1220.0,-437.0,-94.0,-231.0,V
2.13,1.72,2.59,3.3000000000000003,3.19,3520.0,15704.0,1104.0,-344.0,180.0,-160.0,V
2.09,1.66,2.65,3.3000000000000003,3.17,3632.0,15668.0,1012.0,-478.0,-289.0,-185.0,V
2.12,1.78,2.65,3.2400000000000007,3.2199999999999998,3616.0,15624.0,1228.0,-414.0,-110.0,-146.0,V
2.13,1.77,2.54,3.3000000000000003,3.2300000000000004,3508.0,15700.0,888.0,-418.0,-82.0,-114.0,V
2.12,1.77,2.65,3.3000000000000003,3.2300000000000004,3516.0,15752.0,1024.0,-381.0,-14.0,-122.0,V
2.15,1.7500000000000002,2.68,3.3000000000000003,3.2199999999999998,3560.0,15768.0,1092.0,-430.0,-263.0,-212.0,V
2.1,1.68,2.64,3.3000000000000003,3.2099999999999995,3696.0,15652.0,1228.0,-362.0,-41.0,-160.0,V
2.13,1.77,2.66,3.3000000000000003,3.15,3596.0,15716.0,932.0,-415.0,-147.0,-146.0,V
2.13,1.77,2.65,3.3000000000000003,3.2300000000000004,3640.0,15728.0,992.0,-460.0,-259.0,-168.0,V
2.15,1.78,2.67,3.3000000000000003,3.2199999999999998,3520.0,15700.0,1112.0,-356.0,56.0,-108.0,V
2.25,1.72,2.65,3.3000000000000003,3.17,3668.0,15732.0,1112.0,-440.0,-228.0,-189.0,V
2.13,1.76,2.57,3.3000000000000003,3.2199999999999998,3492.0,15800.0,984.0,-388.0,-92.0,-116.0,V
2.12,1.7500000000000002,2.62,3.3000000000000003,3.2199999999999998,3548.0,15684.0,956.0,-407.0,-168.0,-172.0,V
2.13,1.78,2.67,3.3000000000000003,3.2099999999999995,3656.0,15692.0,1164.0,-435.0,-180.0,-209.0,V
2.15,1.78,2.68,3.3000000000000003,3.25,3664.0,15708.0,1056.0,-395.0,-125.0,-168.0,V
2.14,1.7500000000000002,2.65,3.3000000000000003,3.19,3628.0,15752.0,1100.0,-469.0,-243.0,-160.0,V
2.15,1.76,2.63,3.12,3.2300000000000004,3580.0,15720.0,1120.0,-420.0,-42.0,-212.0,V
2.11,1.77,2.62,3.3000000000000003,3.2199999999999998,3612.0,15672.0,1112.0,-418.0,-91.0,-264.0,V
2.18,1.68,2.65,3.3000000000000003,3.2400000000000007,3624.0,15652.0,984.0,-362.0,-86.0,-185.0,V
2.14,1.78,2.66,3.17,3.2400000000000007,3668.0,15636.0,1176.0,-444.0,-195.0,-199.0,V
2.12,1.78,2.67,3.3000000000000003,3.19,3504.0,15740.0,1016.0,-434.0,-235.0,-215.0,V
2.11,1.78,2.63,3.3000000000000003,3.2400000000000007,3612.0,15636.0,1104.0,-440.0,-202.0,-279.0,V
2.17,1.72,2.66,3.3000000000000003,3.2099999999999995,3644.0,15712.0,1024.0,-380.0,-11.0,-247.0,V
2.12,1.78,2.64,3.3000000000000003,3.2199999999999998,3752.0,15684.0,1128.0,-388.0,-61.0,-220.0,V
2.13,1.77,2.67,3.3000000000000003,3.18,3688.0,15684.0,1036.0,-369.0,93.0,-185.0,V
2.13,1.7399999999999998,2.58,3.3000000000000003,3.2099999999999995,3636.0,15768.0,1168.0,-338.0,110.0,-187.0,V
2.14,1.78,2.66,3.3000000000000003,3.25,3532.0,15696.0,1044.0,-378.0,30.0,-184.0,V
2.11,1.7399999999999998,2.63,3.3000000000000003,3.2300000000000004,3540.0,15812.0,964.0,-497.0,-340.0,-212.0,V
2.13,1.7500000000000002,2.62,3.3000000000000003,3.2300000000000004,3588.0,15680.0,928.0,-471.0,-384.0,-146.0,V
2.13,1.77,2.71,3.3000000000000003,3.18,3516.0,15704.0,1112.0,-556.0,-463.0,-194.0,V
2.15,1.77,2.66,3.3000000000000003,3.16,3676.0,15780.0,1112.0,-487.0,-153.0,-195.0,V
2.09,1.79,2.62,3.3000000000000003,3.12,3588.0,15692.0,1108.0,-378.0,25.0,-172.0,V
2.13,1.78,2.66,3.25,3.18,3564.0,15576.0,1224.0,-383.0,91.0,-157.0,V
2.15,1.7399999999999998,2.58,3.3000000000000003,3.17,3652.0,15680.0,920.0,-395.0,140.0,-135.0,V
2.14,1.7500000000000002,2.62,3.3000000000000003,3.2400000000000007,3544.0,15680.0,940.0,-410.0,-83.0,-143.0,V
2.14,1.7500000000000002,2.68,3.1400000000000006,3.18,3540.0,15728.0,948.0,-483.0,-340.0,-190.0,V
2.15,1.72,2.68,3.15,3.2199999999999998,3612.0,15724.0,1096.0,-396.0,-249.0,-184.0,V
2.1,1.78,2.66,3.3000000000000003,3.16,3852.0,15664.0,1092.0,-504.0,-400.0,-219.0,V
2.09,1.78,2.66,3.3000000000000003,3.17,3752.0,15684.0,1088.0,-391.0,-124.0,-138.0,V
2.11,1.78,2.68,3.3000000000000003,3.2099999999999995,3820.0,15640.0,1192.0,-403.0,10.0,-158.0,V
2.17,1.78,2.65,3.3000000000000003,3.17,3644.0,15772.0,840.0,-322.0,272.0,-145.0,V
2.13,1.77,2.68,3.08,3.2300000000000004,3496.0,15616.0,1040.0,-386.0,86.0,-173.0,V
2.13,1.73,2.6,3.3000000000000003,3.2300000000000004,3536.0,15604.0,1012.0,-333.0,173.0,-119.0,V
2.15,1.67,2.68,3.25,3.2099999999999995,3600.0,15684.0,832.0,-465.0,-330.0,-227.0,V
2.1,1.78,2.66,3.3000000000000003,3.2,3700.0,15720.0,996.0,-423.0,-20.0,-275.0,V
2.16,1.7399999999999998,2.58,3.3000000000000003,3.25,3672.0,15728.0,1108.0,-458.0,-247.0,-299.0,V
2.19,1.78,2.65,3.3000000000000003,3.18,3688.0,15580.0,1200.0,-463.0,-156.0,-266.0,V
2.17,1.68,2.55,3.3000000000000003,3.2300000000000004,3748.0,15716.0,1156.0,-473.0,-52.0,-274.0,V
2.13,1.82,2.6,3.3000000000000003,3.18,3448.0,15716.0,916.0,-376.0,104.0,-204.0,V
2.13,1.78,2.64,3.3000000000000003,3.2300000000000004,3508.0,15724.0,1076.0,-532.0,-224.0,-291.0,V
2.2,1.77,2.67,3.3000000000000003,3.26,3576.0,15768.0,1072.0,-435.0,-64.0,-259.0,V
2.13,1.78,2.66,3.3000000000000003,3.2400000000000007,3628.0,15676.0,1136.0,-488.0,-182.0,-246.0,V
2.17,1.78,2.65,3.3000000000000003,3.2300000000000004,3540.0,15732.0,956.0,-508.0,-233.0,-288.0,V
2.1,1.78,2.63,3.3000000000000003,3.17,3564.0,15732.0,1060.0,-429.0,-77.0,-218.0,V
2.14,1.68,2.64,3.3000000000000003,3.19,3644.0,15696.0,1112.0,-483.0,-24.0,-202.0,V
2.15,1.7500000000000002,2.65,3.3000000000000003,3.2199999999999998,3504.0,15660.0,1040.0,-411.0,137.0,-150.0,V
2.12,1.78,2.68,3.3000000000000003,3.2,3516.0,15720.0,1132.0,-462.0,-123.0,-153.0,V
2.15,1.7500000000000002,2.63,3.3000000000000003,3.2199999999999998,3636.0,15760.0,1108.0,-422.0,28.0,-76.0,V
2.14,1.7500000000000002,2.64,3.3000000000000003,3.2300000000000004,3528.0,15644.0,1004.0,-513.0,-253.0,-122.0,V
2.11,1.72,2.61,3.3000000000000003,3.18,3508.0,15764.0,1116.0,-453.0,-102.0,-89.0,V
2.13,1.78,2.58,3.3000000000000003,3.18,3592.0,15680.0,1096.0,-427.0,-91.0,-131.0,V
2.13,1.77,2.66,3.3000000000000003,3.2199999999999998,3704.0,15612.0,1164.0,-465.0,-82.0,-157.0,V
2.13,1.7399999999999998,2.6,3.3000000000000003,3.2199999999999998,3676.0,15728.0,1092.0,-410.0,36.0,-159.0,V
2.1,1.78,2.64,3.3000000000000003,3.18,3808.0,15664.0,1148.0,-381.0,-55.0,-210.0,V
2.13,1.79,2.63,3.3000000000000003,3.25,3628.0,15580.0,1104.0,-378.0,-77.0,-215.0,V
2.13,1.7000000000000002,2.57,3.3000000000000003,3.2199999999999998,3712.0,15604.0,1052.0,-345.0,19.0,-203.0,V
2.1,1.7399999999999998,2.66,3.3000000000000003,3.0,3716.0,15756.0,1056.0,-391.0,-28.0,-260.0,V
2.13,1.7399999999999998,2.66,3.11,3.2300000000000004,3660.0,15692.0,1208.0,-261.0,338.0,-189.0,V
2.15,1.69,2.68,3.3000000000000003,3.2300000000000004,3540.0,15672.0,968.0,-379.0,-189.0,-237.0,V
2.13,1.68,2.68,3.3000000000000003,3.2199999999999998,3540.0,15724.0,1208.0,-375.0,-122.0,-152.0,V
2.15,1.7399999999999998,2.66,3.3000000000000003,3.17,3544.0,15692.0,1072.0,-440.0,-284.0,-196.0,V
2.18,1.7000000000000002,2.63,3.3000000000000003,3.25,3668.0,15780.0,1136.0,-399.0,-199.0,-168.0,V
2.15,1.79,2.67,3.3000000000000003,3.16,3476.0,15712.0,1200.0,-442.0,-348.0,-175.0,V
2.12,1.78,2.65,3.3000000000000003,3.16,3764.0,15680.0,1260.0,-389.0,44.0,-150.0,V
2.13,1.7500000000000002,2.66,3.3000000000000003,3.2400000000000007,3692.0,15692.0,1036.0,-396.0,135.0,-144.0,V
2.14,1.7399999999999998,2.67,3.3000000000000003,3.2099999999999995,3512.0,15704.0,1120.0,-419.0,-95.0,-103.0,V
2.12,1.7500000000000002,2.62,3.3000000000000003,3.25,3592.0,15740.0,828.0,-400.0,-8.0,-39.0,V
2.11,1.67,2.66,3.3000000000000003,3.2199999999999998,3724.0,15828.0,960.0,-430.0,-162.0,-161.0,V
2.15,1.78,2.63,3.3000000000000003,3.19,3476.0,15740.0,1044.0,-362.0,-16.0,-158.0,V
2.12,1.78,2.65,3.3000000000000003,3.2400000000000007,3660.0,15740.0,1036.0,-435.0,-229.0,-198.0,V
2.15,1.78,2.64,3.3000000000000003,3.17,3840.0,15692.0,1180.0,-459.0,-156.0,-202.0,V
2.15,1.78,2.63,3.3000000000000003,3.19,3776.0,15828.0,1100.0,-386.0,-85.0,-135.0,V
2.09,1.78,2.68,3.15,3.2,3748.0,15584.0,1144.0,-468.0,-179.0,-206.0,V
2.13,1.73,2.58,3.3000000000000003,3.17,3584.0,15792.0,932.0,-402.0,6.0,-160.0,V
2.09,1.78,2.66,3.3000000000000003,3.12,3684.0,15688.0,1096.0,-467.0,-379.0,-211.0,V
2.13,1.77,2.64,3.3000000000000003,3.19,3684.0,15788.0,1064.0,-423.0,-163.0,-221.0,V
2.13,1.77,2.58,3.3000000000000003,3.2300000000000004,3616.0,15716.0,1204.0,-459.0,-290.0,-278.0,V
2.11,1.78,2.65,3.3000000000000003,3.2099999999999995,3672.0,15628.0,1208.0,-325.0,16.0,-210.0,V
2.13,1.7500000000000002,2.61,3.3000000000000003,3.17,3704.0,15648.0,1136.0,-486.0,-346.0,-290.0,V
2.15,1.7500000000000002,2.67,3.3000000000000003,3.2099999999999995,3492.0,15668.0,1044.0,-237.0,307.0,-101.0,V
2.15,1.7500000000000002,2.67,3.3000000000000003,3.04,3628.0,15676.0,960.0,-559.0,-698.0,-279.0,V
2.14,1.73,2.59,3.3000000000000003,3.05,3592.0,15692.0,1036.0,-344.0,6.0,-137.0,V
2.15,1.7399999999999998,2.68,3.3000000000000003,3.18,3672.0,15776.0,1000.0,-428.0,-323.0,-260.0,V
2.11,1.78,2.66,3.3000000000000003,3.2300000000000004,3596.0,15648.0,1180.0,-396.0,-95.0,-205.0,V
2.14,1.7500000000000002,2.67,3.3000000000000003,3.2300000000000004,3612.0,15652.0,1080.0,-365.0,21.0,-160.0,V
2.11,1.77,2.67,3.3000000000000003,3.2300000000000004,3480.0,15732.0,1124.0,-404.0,102.0,-169.0,V
2.12,1.7500000000000002,2.68,3.3000000000000003,3.2400000000000007,3516.0,15664.0,988.0,-351.0,78.0,-126.0,V
2.14,1.78,2.64,3.3000000000000003,3.2,3588.0,15668.0,1044.0,-468.0,-315.0,-146.0,V
2.16,1.78,2.66,3.3000000000000003,3.2099999999999995,3620.0,15632.0,936.0,-447.0,-221.0,-131.0,V
2.15,1.76,2.67,3.3000000000000003,3.17,3636.0,15764.0,1068.0,-404.0,-133.0,-152.0,V
2.15,1.77,2.65,3.3000000000000003,3.2300000000000004,3632.0,15568.0,1144.0,-412.0,-213.0,-162.0,V
2.12,1.66,2.62,3.3000000000000003,3.2300000000000004,3736.0,15728.0,1000.0,-440.0,-203.0,-152.0,V
2.12,1.77,2.68,3.3000000000000003,3.2300000000000004,3728.0,15736.0,968.0,-370.0,205.0,-112.0,V
2.15,1.77,2.67,3.3000000000000003,3.18,3612.0,15728.0,1040.0,-396.0,43.0,-156.0,V
2.13,1.7500000000000002,2.68,3.3000000000000003,3.2199999999999998,3588.0,15772.0,1116.0,-456.0,19.0,-220.0,V
2.1,1.77,2.66,3.3000000000000003,3.17,3776.0,15652.0,1104.0,-426.0,-131.0,-219.0,V
2.13,1.78,2.64,3.3000000000000003,3.2,3812.0,15692.0,1000.0,-418.0,7.0,-189.0,V
2.13,1.67,2.6,3.3000000000000003,3.2099999999999995,3788.0,15732.0,1028.0,-461.0,-242.0,-260.0,V
2.11,1.7399999999999998,2.67,3.3000000000000003,3.2199999999999998,3732.0,15612.0,1052.0,-428.0,-196.0,-199.0,V
2.12,1.78,2.64,3.3000000000000003,3.2300000000000004,3824.0,15684.0,944.0,-491.0,-304.0,-199.0,V
2.1,1.78,2.59,3.3000000000000003,3.17,3688.0,15836.0,976.0,-468.0,-68.0,-176.0,V
2.12,1.78,2.66,3.3000000000000003,3.2,3628.0,15820.0,888.0,-455.0,-141.0,-200.0,V
2.13,1.7500000000000002,2.65,3.3000000000000003,3.16,3740.0,15724.0,984.0,-477.0,-86.0,-179.0,V
2.15,1.7500000000000002,2.62,3.3000000000000003,3.1300000000000003,3640.0,15692.0,1100.0,-465.0,-17.0,-176.0,V
2.15,1.7500000000000002,2.68,3.3000000000000003,3.18,3616.0,15600.0,1156.0,-439.0,-63.0,-180.0,V
2.12,1.78,2.6,3.3000000000000003,3.17,3820.0,15692.0,1204.0,-467.0,-93.0,-176.0,V
2.13,1.73,2.67,3.3000000000000003,3.18,3632.0,15720.0,1220.0,-442.0,-120.0,-190.0,V
2.11,1.77,2.64,3.3000000000000003,3.2099999999999995,3612.0,15680.0,1140.0,-365.0,-94.0,-187.0,V
2.14,1.77,2.67,3.3000000000000003,3.2,3688.0,15700.0,984.0,-448.0,-364.0,-266.0,V
2.15,1.7500000000000002,2.63,3.3000000000000003,3.16,3700.0,15740.0,1264.0,-338.0,-21.0,-189.0,V
2.12,1.78,2.68,3.3000000000000003,3.2199999999999998,3660.0,15732.0,1160.0,-393.0,-163.0,-256.0,V
2.13,1.78,2.57,3.3000000000000003,3.2400000000000007,3592.0,15688.0,1104.0,-278.0,124.0,-232.0,V
2.13,1.7500000000000002,2.65,3.3000000000000003,3.2199999999999998,3772.0,15728.0,1016.0,-273.0,119.0,-239.0,V
2.15,1.78,2.68,3.3000000000000003,3.2300000000000004,3632.0,15768.0,992.0,-311.0,42.0,-260.0,V
2.13,1.78,2.67,3.3000000000000003,3.2199999999999998,3356.0,15756.0,936.0,-218.0,233.0,-158.0,V
2.14,1.7399999999999998,2.64,3.3000000000000003,3.18,3444.0,15844.0,1000.0,-409.0,-312.0,-223.0,V
2.14,1.77,2.66,3.3000000000000003,3.03,3564.0,15512.0,1076.0,-334.0,-222.0,-145.0,V
2.15,1.7500000000000002,2.62,3.3000000000000003,3.2,3576.0,15872.0,1220.0,-382.0,163.0,-132.0,V
2.15,1.78,2.63,3.3000000000000003,3.2,3588.0,15588.0,1068.0,-575.0,-507.0,-209.0,V
2.15,1.7500000000000002,2.59,3.3000000000000003,3.17,3536.0,15788.0,1052.0,-342.0,215.0,-22.0,V
2.13,1.77,2.59,3.3000000000000003,3.2,3712.0,15736.0,1000.0,-458.0,0.0,-179.0,V
2.14,1.7500000000000002,2.68,3.3000000000000003,3.2199999999999998,3416.0,15628.0,1076.0,-270.0,244.0,-29.0,V
2.15,1.77,2.62,3.3000000000000003,3.2199999999999998,3676.0,15636.0,1012.0,-573.0,-536.0,-181.0,V
2.15,1.78,2.64,3.3000000000000003,3.2400000000000007,3732.0,15752.0,1100.0,-403.0,-114.0,-93.0,V
2.13,1.78,2.66,3.3000000000000003,3.17,3800.0,15620.0,1036.0,-470.0,-191.0,-176.0,V
2.13,1.72,2.62,3.3000000000000003,3.19,3728.0,15800.0,1084.0,-320.0,111.0,-57.0,V
2.17,1.78,2.6,3.3000000000000003,3.2199999999999998,3876.0,15512.0,1152.0,-570.0,-258.0,-203.0,V
2.13,1.7500000000000002,2.67,3.3000000000000003,3.2300000000000004,3848.0,15712.0,1096.0,-349.0,581.0,-58.0,V
2.15,1.77,2.67,3.3000000000000003,3.16,3568.0,15740.0,1216.0,-406.0,312.0,-95.0,V
2.12,1.79,2.66,3.3000000000000003,3.2099999999999995,3676.0,15728.0,856.0,-398.0,248.0,-102.0,V
2.18,1.7000000000000002,2.58,3.3000000000000003,3.2099999999999995,3640.0,15628.0,1068.0,-404.0,133.0,-82.0,V
2.15,1.77,2.61,3.3000000000000003,3.19,3508.0,15640.0,1072.0,-444.0,-41.0,-38.0,V
2.12,1.77,2.61,3.3000000000000003,3.19,3564.0,15744.0,976.0,-561.0,-491.0,-89.0,V
2.11,1.73,2.64,3.3000000000000003,3.2199999999999998,3496.0,15724.0,1192.0,-418.0,-50.0,-87.0,V
2.13,1.77,2.69,3.15,3.2,3744.0,15804.0,848.0,-505.0,-50.0,-228.0,V
2.12,1.77,2.63,3.15,3.2199999999999998,4024.0,15596.0,1276.0,-315.0,397.0,-106.0,V
2.09,1.73,2.66,3.3000000000000003,3.2300000000000004,3932.0,15664.0,1152.0,-325.0,422.0,-75.0,V
2.15,1.7399999999999998,2.62,3.3000000000000003,3.17,3536.0,15760.0,1104.0,-252.0,439.0,-10.0,V
2.13,1.73,2.62,3.3000000000000003,3.2300000000000004,3712.0,15544.0,896.0,-479.0,-232.0,-196.0,V
2.03,1.7399999999999998,2.67,3.3000000000000003,3.18,3716.0,15584.0,1076.0,-401.0,-99.0,-118.0,V
2.13,1.7500000000000002,2.65,3.3000000000000003,3.11,3620.0,15740.0,912.0,-453.0,-271.0,-117.0,V
2.13,1.67,2.67,3.3000000000000003,3.17,3588.0,15604.0,944.0,-463.0,-259.0,-122.0,V
2.2,1.78,2.65,3.3000000000000003,3.2300000000000004,3540.0,15864.0,824.0,-453.0,-255.0,-287.0,V
2.18,1.77,2.65,3.3000000000000003,3.2199999999999998,3640.0,15680.0,1016.0,-182.0,357.0,-252.0,V
2.13,1.69,2.66,3.3000000000000003,3.2099999999999995,3868.0,15564.0,872.0,-399.0,-161.0,-356.0,V
2.15,1.7500000000000002,2.56,3.3000000000000003,3.19,3832.0,15712.0,1008.0,-388.0,-115.0,-187.0,V
2.15,1.71,2.64,3.3000000000000003,3.2099999999999995,3916.0,15736.0,1220.0,-458.0,-168.0,-168.0,V
2.13,1.7500000000000002,2.56,3.3000000000000003,3.2099999999999995,3564.0,15604.0,1060.0,-468.0,-185.0,-110.0,V
2.15,1.78,2.63,3.3000000000000003,3.1400000000000006,3672.0,15900.0,1112.0,-498.0,-336.0,-84.0,V
2.12,1.78,2.61,3.3000000000000003,3.2199999999999998,3508.0,15640.0,1176.0,-551.0,-110.0,-108.0,V
2.15,1.68,2.64,3.3000000000000003,3.2400000000000007,3456.0,15744.0,936.0,-517.0,-104.0,-146.0,V
2.13,1.7500000000000002,2.64,3.3000000000000003,3.2400000000000007,3544.0,15680.0,984.0,-452.0,-64.0,-130.0,V
2.15,1.78,2.63,3.3000000000000003,3.2199999999999998,3860.0,15628.0,1020.0,-509.0,-231.0,-195.0,V
2.18,1.78,2.63,3.3000000000000003,3.2,3828.0,15596.0,1280.0,-410.0,83.0,-95.0,V
2.14,1.68,2.53,3.3000000000000003,3.16,3612.0,15820.0,1152.0,-514.0,-149.0,-103.0,V
2.15,1.78,2.63,3.3000000000000003,3.2,3760.0,15616.0,1228.0,-528.0,-296.0,-94.0,V
2.13,1.78,2.61,3.3000000000000003,3.2199999999999998,3664.0,15824.0,952.0,-568.0,-107.0,-160.0,V
2.11,1.77,2.62,3.3000000000000003,3.2,3576.0,15652.0,1000.0,-410.0,-147.0,-165.0,V
2.15,1.7399999999999998,2.6,3.3000000000000003,3.17,3748.0,15640.0,1060.0,-479.0,-115.0,-207.0,V
2.11,1.77,2.52,3.3000000000000003,3.2199999999999998,3752.0,15720.0,1152.0,-452.0,-157.0,-170.0,V
2.2,1.72,2.63,3.3000000000000003,3.05,3832.0,15672.0,1208.0,-485.0,-248.0,-195.0,V
2.15,1.78,2.57,3.3000000000000003,3.2300000000000004,3704.0,15708.0,1080.0,-441.0,54.0,-106.0,V
2.15,1.7500000000000002,2.6,3.3000000000000003,3.2300000000000004,3696.0,15636.0,1076.0,-431.0,-217.0,-84.0,V
2.15,1.78,2.54,3.3000000000000003,3.2,3704.0,15728.0,1288.0,-517.0,-244.0,-135.0,V
2.21,1.78,2.51,3.3000000000000003,3.15,3848.0,15616.0,996.0,-411.0,144.0,-85.0,V
2.13,1.7399999999999998,2.58,3.3000000000000003,3.2,3828.0,15600.0,1192.0,-485.0,-182.0,-51.0,V
2.14,1.77,2.62,3.3000000000000003,3.2300000000000004,3720.0,15640.0,1252.0,-435.0,-78.0,-13.0,V
2.13,1.78,2.59,3.3000000000000003,3.18,3744.0,15760.0,1032.0,-416.0,42.0,-126.0,V
2.13,1.78,2.61,3.3000000000000003,3.19,3784.0,15712.0,960.0,-341.0,138.0,-180.0,V
2.17,1.72,2.62,3.3000000000000003,3.2199999999999998,3784.0,15600.0,1064.0,-388.0,-83.0,-205.0,V
2.13,1.78,2.51,3.3000000000000003,3.2099999999999995,3748.0,15720.0,1176.0,-447.0,-363.0,-225.0,V
2.1,1.78,2.57,3.3000000000000003,3.2300000000000004,3736.0,15680.0,948.0,-361.0,-162.0,-198.0,V
2.15,1.78,2.54,3.3000000000000003,3.17,3664.0,15768.0,1132.0,-433.0,-395.0,-281.0,V
2.13,1.73,2.62,3.3000000000000003,3.2199999999999998,3888.0,15720.0,1196.0,-369.0,7.0,-248.0,V
2.12,1.79,2.57,3.3000000000000003,3.2400000000000007,3796.0,15744.0,856.0,-471.0,-183.0,-295.0,V
2.13,1.69,2.59,3.3000000000000003,3.2300000000000004,3824.0,15632.0,1112.0,-274.0,45.0,-187.0,V
2.13,1.77,2.6,3.3000000000000003,3.2099999999999995,3672.0,15656.0,984.0,-442.0,-256.0,-252.0,V
2.17,1.76,2.57,3.3000000000000003,3.18,3588.0,15768.0,1112.0,-339.0,-45.0,-176.0,V
2.15,1.72,2.58,3.3000000000000003,3.2199999999999998,3524.0,15720.0,1072.0,-430.0,-388.0,-364.0,V
2.15,1.7000000000000002,2.58,3.3000000000000003,3.2300000000000004,3708.0,15600.0,1228.0,-166.0,317.0,-292.0,V
2.13,1.8799999999999997,2.57,3.3000000000000003,3.2,3848.0,15836.0,1068.0,-414.0,-391.0,-580.0,V
2.15,1.7500000000000002,2.57,3.3000000000000003,3.04,4060.0,15504.0,1440.0,-75.0,199.0,-386.0,V
2.2,1.76,2.53,3.3000000000000003,3.19,4140.0,15616.0,1220.0,-340.0,12.0,-502.0,V
2.15,1.7500000000000002,2.61,3.15,3.2099999999999995,3956.0,15636.0,1128.0,-253.0,-4.0,-366.0,V
2.09,1.79,2.6,3.3000000000000003,3.2099999999999995,3644.0,15808.0,948.0,-243.0,-338.0,-342.0,V
2.15,1.77,2.53,3.3000000000000003,3.2199999999999998,3760.0,15504.0,1196.0,-378.0,-421.0,-403.0,V
2.13,1.78,2.62,3.3000000000000003,3.2099999999999995,3768.0,15812.0,992.0,-357.0,-423.0,-381.0,V
2.11,1.78,2.61,3.3000000000000003,3.2,3592.0,15588.0,1164.0,-155.0,96.0,-218.0,V
2.15,1.7500000000000002,2.51,3.3000000000000003,3.2,3444.0,15812.0,860.0,-474.0,-665.0,-491.0,V
2.13,1.76,2.53,3.3000000000000003,3.07,3520.0,15732.0,808.0,-46.0,450.0,-386.0,V
2.13,1.7399999999999998,2.62,3.3000000000000003,3.2199999999999998,3852.0,15620.0,1032.0,-313.0,-293.0,-559.0,V
2.15,1.71,2.62,3.3000000000000003,3.2199999999999998,3824.0,15632.0,924.0,-253.0,91.0,-391.0,V
2.15,1.71,2.56,3.3000000000000003,3.2099999999999995,3696.0,15788.0,1052.0,-296.0,-6.0,-308.0,V
2.13,1.79,2.61,3.3000000000000003,3.2099999999999995,3648.0,15820.0,796.0,-357.0,-174.0,-341.0,V
2.13,1.7500000000000002,2.54,3.3000000000000003,3.2199999999999998,3588.0,15792.0,912.0,-260.0,-28.0,-237.0,V
2.09,1.78,2.61,3.3000000000000003,3.2099999999999995,3444.0,15752.0,860.0,-368.0,-209.0,-189.0,V
2.13,1.7399999999999998,2.54,3.3000000000000003,3.1300000000000003,3600.0,15772.0,864.0,-486.0,-496.0,-183.0,V
2.16,1.79,2.62,3.3000000000000003,3.16,3420.0,15708.0,852.0,-375.0,84.0,-66.0,V
2.15,1.71,2.61,3.1300000000000003,3.2300000000000004,3504.0,15732.0,944.0,-480.0,10.0,-219.0,V
2.13,1.7000000000000002,2.59,3.3000000000000003,3.2300000000000004,3576.0,15680.0,832.0,-349.0,276.0,-107.0,V
2.13,1.71,2.58,3.3000000000000003,3.2199999999999998,3736.0,15672.0,832.0,-692.0,-455.0,-281.0,V
2.11,1.73,2.61,3.3000000000000003,3.2,3628.0,15712.0,872.0,-389.0,276.0,-1.0,V
2.11,1.77,2.5,3.3000000000000003,3.16,3672.0,15744.0,968.0,-627.0,-400.0,-189.0,V
2.11,1.78,2.58,3.3000000000000003,3.06,3748.0,15744.0,1032.0,-612.0,-197.0,-156.0,V
2.13,1.78,2.57,3.3000000000000003,3.2199999999999998,3628.0,15588.0,936.0,-703.0,-210.0,-179.0,V
2.14,1.76,2.55,3.3000000000000003,3.2199999999999998,3468.0,15764.0,1028.0,-638.0,-98.0,-166.0,V
2.13,1.78,2.53,3.3000000000000003,3.16,3772.0,15728.0,1016.0,-610.0,20.0,-236.0,V
2.1,1.78,2.47,3.3000000000000003,3.2400000000000007,3812.0,15680.0,892.0,-657.0,-203.0,-238.0,V
2.13,1.79,2.55,3.3000000000000003,3.2099999999999995,3640.0,15792.0,908.0,-480.0,67.0,-106.0,V
2.13,1.78,2.57,3.3000000000000003,3.2300000000000004,3820.0,15540.0,916.0,-627.0,-472.0,-112.0,V
2.12,1.78,2.57,3.3000000000000003,3.2199999999999998,3676.0,15612.0,1100.0,-568.0,-295.0,-56.0,V
2.12,1.76,2.62,3.3000000000000003,3.2300000000000004,3736.0,15680.0,1056.0,-653.0,-731.0,-139.0,V
2.12,1.77,2.6,3.3000000000000003,3.2199999999999998,3828.0,15760.0,1168.0,-598.0,-352.0,-112.0,V
2.15,1.69,2.62,3.3000000000000003,3.2,3728.0,15712.0,1064.0,-578.0,-231.0,-128.0,V
2.09,1.7399999999999998,2.62,3.3000000000000003,3.2199999999999998,3624.0,15780.0,1152.0,-485.0,68.0,-134.0,V
2.13,1.7500000000000002,2.62,3.3000000000000003,3.2099999999999995,3824.0,15744.0,964.0,-473.0,-59.0,-237.0,V
2.12,1.78,2.59,3.3000000000000003,3.2,3660.0,15664.0,1184.0,-427.0,-231.0,-215.0,V
2.12,1.78,2.49,3.3000000000000003,3.1400000000000006,3748.0,15544.0,1308.0,-510.0,-503.0,-230.0,V
2.13,1.71,2.62,3.3000000000000003,3.2300000000000004,3712.0,15696.0,1020.0,-551.0,-418.0,-241.0,V
2.15,1.7399999999999998,2.48,3.3000000000000003,3.18,3716.0,15632.0,1300.0,-390.0,-90.0,-261.0,V
2.08,1.78,2.59,3.3000000000000003,3.25,3724.0,15628.0,1112.0,-435.0,-155.0,-243.0,V
2.12,1.78,2.59,3.3000000000000003,3.18,3752.0,15680.0,1044.0,-434.0,180.0,-167.0,V
2.11,1.78,2.58,3.3000000000000003,3.2099999999999995,3632.0,15768.0,992.0,-329.0,332.0,-136.0,V
2.11,1.7399999999999998,2.59,3.3000000000000003,3.2199999999999998,3568.0,15596.0,1048.0,-327.0,265.0,-161.0,V
2.1,1.76,2.59,3.3000000000000003,3.0,3676.0,15620.0,1024.0,-371.0,553.0,-241.0,V
2.13,1.79,2.53,3.3000000000000003,3.2400000000000007,3672.0,15660.0,820.0,-319.0,281.0,-194.0,V
2.17,1.79,2.61,3.3000000000000003,3.2300000000000004,3692.0,15768.0,1136.0,-480.0,-203.0,-187.0,V
2.15,1.76,2.55,3.3000000000000003,3.2199999999999998,3584.0,15712.0,900.0,-391.0,83.0,-61.0,V
2.15,1.79,2.55,3.3000000000000003,3.2199999999999998,3576.0,15848.0,1052.0,-560.0,-447.0,-209.0,V
2.11,1.79,2.58,3.3000000000000003,3.2099999999999995,3632.0,15764.0,844.0,-392.0,-68.0,-80.0,V
2.1,1.76,2.62,3.3000000000000003,3.2099999999999995,3644.0,15652.0,1144.0,-527.0,-366.0,-178.0,V
2.13,1.79,2.55,3.3000000000000003,3.18,3656.0,15716.0,1208.0,-344.0,203.0,-122.0,V
2.14,1.76,2.52,3.3000000000000003,3.2300000000000004,3692.0,15616.0,1052.0,-432.0,-164.0,-152.0,V
2.15,1.77,2.6,3.3000000000000003,3.2300000000000004,3624.0,15624.0,1076.0,-413.0,-75.0,-116.0,V
2.1,1.79,2.57,3.3000000000000003,3.09,3720.0,15760.0,1092.0,-453.0,-192.0,-119.0,V
2.12,1.76,2.62,3.3000000000000003,3.2199999999999998,3688.0,15692.0,1208.0,-456.0,-201.0,-129.0,V
2.15,1.78,2.58,3.3000000000000003,3.2400000000000007,3788.0,15764.0,1060.0,-470.0,-224.0,-172.0,V
2.15,1.79,2.6,3.3000000000000003,3.25,3700.0,15632.0,976.0,-407.0,-193.0,-155.0,V
2.15,1.69,2.61,3.3000000000000003,3.2099999999999995,3688.0,15684.0,928.0,-331.0,-73.0,-143.0,V
2.13,1.69,2.59,3.3000000000000003,3.2300000000000004,3660.0,15660.0,976.0,-466.0,-292.0,-223.0,V
2.13,1.68,2.62,3.3000000000000003,3.2199999999999998,3788.0,15672.0,1100.0,-358.0,135.0,-182.0,V
2.16,1.77,2.55,3.18,3.2400000000000007,3852.0,15696.0,1136.0,-449.0,-14.0,-201.0,V
2.15,1.69,2.62,3.3000000000000003,3.2199999999999998,3636.0,15756.0,1028.0,-413.0,-27.0,-155.0,V
2.11,1.79,2.51,3.3000000000000003,3.19,3532.0,15824.0,1008.0,-516.0,-303.0,-163.0,V
2.13,1.79,2.61,3.3000000000000003,3.2300000000000004,3816.0,15672.0,928.0,-510.0,-365.0,-233.0,V
2.15,1.79,2.59,3.3000000000000003,3.18,3708.0,15688.0,848.0,-517.0,-403.0,-207.0,V
2.15,1.79,2.6,3.3000000000000003,3.2099999999999995,3824.0,15624.0,932.0,-558.0,-441.0,-285.0,V
2.13,1.8000000000000003,2.51,3.3000000000000003,3.0,3812.0,15692.0,1052.0,-412.0,105.0,-227.0,V
2.14,1.77,2.62,3.3000000000000003,3.17,3664.0,15676.0,1000.0,-487.0,7.0,-246.0,V
2.13,1.8000000000000003,2.56,3.3000000000000003,3.18,3644.0,15768.0,896.0,-411.0,-37.0,-234.0,V
2.14,1.76,2.59,3.3000000000000003,3.2300000000000004,3776.0,15684.0,1072.0,-489.0,-87.0,-236.0,V
2.11,1.69,2.54,3.3000000000000003,3.18,3796.0,15764.0,1180.0,-507.0,-173.0,-210.0,V
2.13,1.76,2.57,3.3000000000000003,3.2199999999999998,3692.0,15660.0,1160.0,-471.0,-350.0,-160.0,V
2.11,1.7500000000000002,2.59,3.3000000000000003,3.2199999999999998,3776.0,15708.0,1164.0,-477.0,-222.0,-150.0,V
2.13,1.79,2.51,3.3000000000000003,3.2199999999999998,3840.0,15632.0,968.0,-501.0,-249.0,-190.0,V
2.14,1.78,2.61,3.3000000000000003,3.2199999999999998,3548.0,15780.0,1120.0,-329.0,262.0,-57.0,V
2.15,1.79,2.59,3.3000000000000003,3.2199999999999998,3696.0,15756.0,1236.0,-618.0,-507.0,-245.0,V
2.13,1.78,2.61,3.3000000000000003,3.2,3648.0,15672.0,892.0,-285.0,244.0,-59.0,V
2.12,1.67,2.62,3.3000000000000003,3.2199999999999998,3892.0,15628.0,1052.0,-566.0,-395.0,-257.0,V
2.17,1.78,2.54,3.3000000000000003,3.2,3760.0,15624.0,928.0,-358.0,150.0,-134.0,V
2.13,1.79,2.53,3.3000000000000003,3.06,3840.0,15604.0,1108.0,-528.0,-249.0,-190.0,V
2.15,1.7399999999999998,2.62,3.3000000000000003,3.2199999999999998,3948.0,15828.0,1056.0,-469.0,-29.0,-165.0,V
