flex_1,flex_2,flex_3,flex_4,flex_5,accel_x,accel_y,accel_z,gyro_x,gyro_y,gyro_z,label
2.26,1.66,1.73,3.2,3.06,6288.0,14924.0,1592.0,-639.0,-500.0,41.0,Z
2.31,1.7399999999999998,1.6399999999999997,3.25,3.04,6376.0,14932.0,1708.0,-402.0,130.0,98.0,Z
2.26,1.71,1.7399999999999998,3.2300000000000004,3.01,6232.0,14880.0,1700.0,-338.0,139.0,163.0,Z
2.24,1.7000000000000002,1.71,3.2400000000000007,3.06,6292.0,14952.0,1564.0,-394.0,-107.0,133.0,Z
2.25,1.66,1.7399999999999998,3.2099999999999995,2.86,6328.0,14988.0,1620.0,-381.0,-6.0,160.0,Z
2.28,1.73,1.71,3.2400000000000007,3.05,6196.0,14988.0,1488.0,-338.0,61.0,178.0,Z
2.22,1.71,1.73,3.25,3.06,6328.0,15092.0,1680.0,-350.0,-164.0,146.0,Z
2.28,1.72,1.72,3.19,3.06,6336.0,15104.0,1608.0,-398.0,-242.0,97.0,Z
2.22,1.71,1.7399999999999998,3.2400000000000007,3.0,6252.0,14992.0,1656.0,-369.0,-387.0,99.0,Z
2.2,1.71,1.7399999999999998,3.2099999999999995,3.04,6504.0,14984.0,1720.0,-380.0,-373.0,-36.0,Z
2.24,1.72,1.6200000000000003,3.25,3.07,6464.0,14904.0,1788.0,-370.0,-14.0,-3.0,Z
2.24,1.73,1.73,3.2300000000000004,3.06,6520.0,15084.0,1832.0,-416.0,52.0,42.0,Z
2.24,1.7000000000000002,1.7399999999999998,3.2,3.05,6416.0,15012.0,1632.0,-587.0,-419.0,-16.0,Z
2.26,1.73,1.7000000000000002,3.2400000000000007,3.03,6516.0,14976.0,1784.0,-510.0,-237.0,-32.0,Z
2.26,1.7399999999999998,1.73,3.2400000000000007,3.06,6284.0,15032.0,1580.0,-472.0,-34.0,-5.0,Z
2.24,1.69,1.69,3.17,3.06,6288.0,14932.0,1720.0,-626.0,-644.0,-114.0,Z
2.31,1.7399999999999998,1.71,3.2199999999999998,2.86,6236.0,14948.0,1324.0,-526.0,-529.0,-106.0,Z
2.24,1.71,1.7399999999999998,3.2400000000000007,3.04,6412.0,14912.0,1644.0,-401.0,-533.0,-88.0,Z
2.25,1.73,1.7000000000000002,3.2400000000000007,3.07,6516.0,14872.0,1484.0,-315.0,-194.0,-83.0,Z
2.24,1.7399999999999998,1.7399999999999998,3.2400000000000007,3.05,6420.0,14924.0,1528.0,-253.0,-24.0,-5.0,Z
2.19,1.71,1.73,3.18,2.99,6656.0,14780.0,1016.0,-394.0,-330.0,20.0,Z
2.23,1.7000000000000002,1.73,3.2300000000000004,3.05,6980.0,14988.0,1076.0,-308.0,-119.0,117.0,Z
2.21,1.6399999999999997,1.71,3.2300000000000004,3.06,7192.0,15016.0,440.0,-574.0,-199.0,-41.0,Z
2.01,1.71,1.7000000000000002,3.05,2.89,7432.0,15120.0,148.0,-786.0,-342.0,-141.0,Z
2.29,1.7399999999999998,1.73,3.2199999999999998,3.03,7448.0,15004.0,-88.0,-1014.0,-647.0,-257.0,Z
2.23,1.73,1.71,3.25,3.07,7604.0,14748.0,-592.0,-1181.0,-1236.0,-321.0,Z
2.25,1.73,1.73,3.1400000000000006,3.06,8024.0,14680.0,-640.0,-1461.0,-2069.0,-410.0,Z
2.2,1.68,1.7399999999999998,3.2,3.05,8428.0,14452.0,-1000.0,-1593.0,-2328.0,-427.0,Z
2.24,1.71,1.72,3.2300000000000004,3.06,8316.0,14240.0,-1304.0,-1949.0,-3178.0,-436.0,Z
2.36,1.68,1.6399999999999997,3.2,3.04,8724.0,14436.0,-1220.0,-2696.0,-4001.0,-587.0,Z
2.23,1.71,1.73,3.2400000000000007,3.06,8588.0,14500.0,-1436.0,-2866.0,-4737.0,-544.0,Z
2.25,1.7399999999999998,1.7399999999999998,3.2,3.06,8256.0,14516.0,-1664.0,-3612.0,-6514.0,-676.0,Z
2.25,1.69,1.7399999999999998,3.26,3.04,8108.0,14516.0,-1508.0,-4552.0,-8791.0,-901.0,Z
2.22,1.72,1.73,3.2099999999999995,3.01,8596.0,14516.0,-1028.0,-5561.0,-10175.0,-1179.0,Z
2.24,1.7399999999999998,1.71,3.2,3.05,9184.0,14240.0,-600.0,-5912.0,-9151.0,-1187.0,Z
2.26,1.7399999999999998,1.67,3.25,3.05,8764.0,14608.0,-312.0,-6203.0,-7903.0,-1158.0,Z
2.24,1.7399999999999998,1.7000000000000002,3.2199999999999998,2.9,8532.0,14888.0,-52.0,-6696.0,-7554.0,-1353.0,Z
2.26,1.72,1.7399999999999998,3.25,3.01,8476.0,15108.0,816.0,-7314.0,-7249.0,-1577.0,Z
2.25,1.73,1.67,3.25,3.03,7916.0,15136.0,1096.0,-7490.0,-6272.0,-1709.0,Z
2.23,1.73,1.7000000000000002,3.2099999999999995,3.02,7148.0,14948.0,1364.0,-7768.0,-6462.0,-2016.0,Z
2.22,1.73,1.73,3.2199999999999998,3.03,6928.0,14840.0,1636.0,-7905.0,-6860.0,-2228.0,Z
2.24,1.7399999999999998,1.71,3.2400000000000007,3.06,6756.0,14788.0,2236.0,-7963.0,-7291.0,-2388.0,Z
2.23,1.7399999999999998,1.73,3.25,3.08,6592.0,14780.0,2296.0,-7909.0,-7236.0,-2599.0,Z
2.23,1.73,1.68,3.2300000000000004,3.05,6472.0,14804.0,2536.0,-7913.0,-7603.0,-2608.0,Z
2.25,1.73,1.71,3.25,3.03,6520.0,15028.0,2960.0,-8089.0,-7819.0,-2595.0,Z
2.34,1.7399999999999998,1.7500000000000002,3.2,3.01,6516.0,15064.0,3504.0,-8178.0,-7364.0,-2606.0,Z
2.25,1.7399999999999998,1.66,3.25,2.89,6184.0,15040.0,3088.0,-8103.0,-6848.0,-2517.0,Z
2.22,1.7399999999999998,1.7500000000000002,3.25,3.04,5788.0,15112.0,3468.0,-8198.0,-7038.0,-2597.0,Z
2.23,1.73,1.69,3.17,3.07,5756.0,14932.0,3840.0,-7844.0,-6036.0,-2480.0,Z
2.21,1.73,1.7399999999999998,3.26,3.03,5364.0,15132.0,3944.0,-7568.0,-5114.0,-2290.0,Z
2.26,1.6399999999999997,1.73,3.25,3.06,5008.0,15180.0,4452.0,-7425.0,-4829.0,-2181.0,Z
2.23,1.7399999999999998,1.66,3.26,3.05,4664.0,15248.0,4652.0,-7644.0,-5314.0,-2168.0,Z
2.26,1.7399999999999998,1.66,3.26,2.85,4908.0,15064.0,5500.0,-7755.0,-5449.0,-2184.0,Z
2.22,1.68,1.73,3.2400000000000007,3.01,4780.0,14928.0,6216.0,-7512.0,-4462.0,-2027.0,Z
2.25,1.71,1.7000000000000002,3.25,3.0,4452.0,14908.0,6396.0,-7380.0,-4170.0,-2050.0,Z
2.24,1.7000000000000002,1.71,3.25,3.04,4360.0,14692.0,6768.0,-7080.0,-4271.0,-1909.0,Z
2.23,1.73,1.6399999999999997,3.2300000000000004,2.87,4312.0,14400.0,7172.0,-6427.0,-3004.0,-1533.0,Z
2.23,1.71,1.67,3.2400000000000007,3.01,4156.0,14320.0,7540.0,-6067.0,-3009.0,-1412.0,Z
2.25,1.7399999999999998,1.7399999999999998,3.25,3.01,4036.0,14224.0,8128.0,-5542.0,-2248.0,-962.0,Z
2.24,1.71,1.71,3.2400000000000007,2.96,3572.0,14316.0,7904.0,-5303.0,-2529.0,-690.0,Z
2.26,1.7399999999999998,1.73,3.2400000000000007,3.06,3488.0,14064.0,8108.0,-4936.0,-2859.0,-491.0,Z
2.22,1.73,1.66,3.25,3.05,3564.0,13848.0,8020.0,-4426.0,-2680.0,-314.0,Z
2.24,1.71,1.71,3.2099999999999995,3.07,3776.0,13796.0,8244.0,-3938.0,-2550.0,-245.0,Z
2.23,1.7000000000000002,1.7399999999999998,3.2300000000000004,2.86,3996.0,13840.0,8260.0,-3252.0,-2083.0,-59.0,Z
2.26,1.69,1.7399999999999998,3.26,3.06,4116.0,13820.0,8172.0,-2825.0,-1724.0,58.0,Z
2.23,1.73,1.7000000000000002,3.2400000000000007,3.05,4232.0,13744.0,8116.0,-2344.0,-1465.0,112.0,Z
2.22,1.73,1.7399999999999998,3.2199999999999998,3.05,4284.0,13796.0,8108.0,-1771.0,-495.0,387.0,Z
2.25,1.7500000000000002,1.7399999999999998,3.26,3.04,4112.0,13748.0,7916.0,-1452.0,-686.0,486.0,Z
2.28,1.82,1.7399999999999998,3.1300000000000003,3.05,3976.0,13664.0,7892.0,-1306.0,-994.0,652.0,Z
2.22,1.71,1.71,3.2400000000000007,3.05,4128.0,13664.0,7824.0,-1186.0,-1380.0,722.0,Z
2.22,1.66,1.7399999999999998,3.2199999999999998,3.05,4228.0,13388.0,7588.0,-786.0,-924.0,842.0,Z
2.26,1.73,1.6500000000000001,3.25,3.02,4100.0,13336.0,7256.0,-657.0,-1204.0,853.0,Z
2.23,1.7399999999999998,1.7500000000000002,3.2099999999999995,3.04,4416.0,13248.0,7576.0,-540.0,-1424.0,899.0,Z
2.25,1.71,1.73,3.1400000000000006,3.06,4264.0,13128.0,7416.0,-390.0,-1168.0,930.0,Z
2.24,1.69,1.73,3.2400000000000007,3.06,4496.0,12848.0,7492.0,-145.0,-510.0,1050.0,Z
2.2,1.7399999999999998,1.76,3.2400000000000007,3.02,4512.0,12968.0,7380.0,110.0,-396.0,1270.0,Z
2.21,1.7399999999999998,1.7399999999999998,3.25,3.06,4192.0,13000.0,7288.0,300.0,-264.0,1538.0,Z
2.26,1.7000000000000002,1.71,3.25,3.06,4540.0,13160.0,7024.0,567.0,-398.0,1731.0,Z
2.24,1.73,1.71,3.26,3.06,4724.0,13180.0,6972.0,943.0,184.0,2061.0,Z
2.19,1.7399999999999998,1.7399999999999998,3.25,3.05,4728.0,13360.0,6840.0,1186.0,680.0,2279.0,Z
2.23,1.63,1.7500000000000002,3.2400000000000007,3.01,4988.0,13340.0,6716.0,1523.0,1382.0,2498.0,Z
2.29,1.7500000000000002,1.7399999999999998,3.25,3.04,5164.0,13580.0,6464.0,1652.0,1729.0,2707.0,Z
2.22,1.71,1.71,3.2300000000000004,3.05,5340.0,13784.0,6628.0,1637.0,1497.0,2795.0,Z
2.26,1.7399999999999998,1.71,3.26,3.06,5576.0,14076.0,6572.0,1786.0,1689.0,2826.0,Z
2.25,1.73,1.7399999999999998,3.2300000000000004,3.0,5560.0,14264.0,6424.0,1886.0,2186.0,2844.0,Z
2.23,1.7500000000000002,1.7399999999999998,3.2,3.04,5904.0,14088.0,6308.0,1812.0,2138.0,2802.0,Z
2.23,1.7000000000000002,1.7399999999999998,3.2400000000000007,3.04,6108.0,14152.0,5992.0,1863.0,2202.0,2918.0,Z
2.23,1.69,1.71,3.2400000000000007,3.06,6108.0,14264.0,6144.0,1596.0,1786.0,2917.0,Z
2.25,1.7399999999999998,1.71,3.26,3.05,6108.0,14240.0,5972.0,1722.0,1972.0,3007.0,Z
2.24,1.7399999999999998,1.7399999999999998,3.25,3.04,6372.0,14180.0,6016.0,1529.0,1336.0,2865.0,Z
2.28,1.68,1.68,3.2400000000000007,3.05,6388.0,13976.0,6272.0,1836.0,1984.0,2968.0,Z
2.25,1.71,1.7000000000000002,3.2400000000000007,3.04,6348.0,13524.0,6300.0,1940.0,2066.0,3013.0,Z
2.24,1.6200000000000003,1.71,3.25,3.03,6396.0,12904.0,6444.0,1968.0,2188.0,3133.0,Z
2.25,1.7399999999999998,1.71,3.25,3.06,6360.0,12660.0,6476.0,1887.0,2042.0,3151.0,Z
2.23,1.73,1.7399999999999998,3.2099999999999995,3.07,6356.0,12468.0,6696.0,2106.0,2598.0,3265.0,Z
2.23,1.71,1.7500000000000002,3.19,3.05,5864.0,12420.0,6412.0,2178.0,2743.0,3386.0,Z
2.26,1.7000000000000002,1.72,3.2199999999999998,3.03,5392.0,11888.0,6880.0,2215.0,3118.0,3455.0,Z
2.29,1.72,1.66,3.2400000000000007,3.04,5324.0,11436.0,6960.0,2227.0,3959.0,3414.0,Z
2.26,1.71,1.7000000000000002,3.2400000000000007,3.04,5364.0,11128.0,7276.0,2550.0,5510.0,3639.0,Z
2.2,1.7399999999999998,1.66,3.2,3.03,5524.0,12176.0,6592.0,3203.0,5861.0,4125.0,Z
2.26,1.63,1.72,3.2400000000000007,3.05,5952.0,13060.0,6428.0,3233.0,3951.0,4482.0,Z
2.23,1.68,1.72,3.07,3.07,6452.0,13732.0,6404.0,4107.0,5337.0,5289.0,Z
2.25,1.73,1.69,3.2400000000000007,3.06,6460.0,13832.0,5984.0,5019.0,6403.0,6001.0,Z
2.23,1.6500000000000001,1.7399999999999998,3.2300000000000004,2.99,6476.0,13628.0,5856.0,5380.0,6867.0,6364.0,Z
2.18,1.7000000000000002,1.67,3.19,3.03,6896.0,13312.0,5476.0,5700.0,7005.0,6774.0,Z
2.25,1.71,1.7000000000000002,3.25,3.03,7620.0,14008.0,5292.0,5551.0,5999.0,6748.0,Z
2.22,1.73,1.69,3.2400000000000007,3.04,8552.0,14384.0,4812.0,5452.0,4943.0,6722.0,Z
2.19,1.7000000000000002,1.6500000000000001,3.25,3.03,9140.0,14884.0,4388.0,5836.0,5295.0,6676.0,Z
2.19,1.7399999999999998,1.73,3.2,3.04,9728.0,14944.0,4328.0,6113.0,6157.0,6654.0,Z
2.23,1.73,1.66,3.2400000000000007,3.05,9944.0,14696.0,4360.0,5984.0,5919.0,6296.0,Z
2.23,1.7399999999999998,1.7500000000000002,3.25,3.03,10412.0,14120.0,5052.0,5517.0,5236.0,6071.0,Z
2.22,1.73,1.68,3.25,2.83,10288.0,14032.0,4900.0,4870.0,4844.0,6259.0,Z
2.25,1.7399999999999998,1.79,3.2400000000000007,3.07,11460.0,13188.0,4188.0,3155.0,7.0,5695.0,Z
2.23,1.72,1.76,3.2199999999999998,3.06,11712.0,12844.0,3496.0,4458.0,2031.0,6912.0,Z
2.23,1.7399999999999998,1.71,3.06,3.03,11116.0,13272.0,2252.0,4068.0,-477.0,6217.0,Z
2.24,1.69,1.7500000000000002,3.16,3.05,10796.0,12980.0,2960.0,5998.0,3741.0,5789.0,Z
2.23,1.67,1.7500000000000002,3.25,3.05,10824.0,12984.0,1744.0,5989.0,3746.0,4703.0,Z
2.23,1.72,1.76,3.2199999999999998,3.01,11404.0,12580.0,2352.0,6199.0,4274.0,4205.0,Z
2.22,1.7500000000000002,1.76,3.2,3.03,11760.0,13108.0,2340.0,5802.0,3719.0,3971.0,Z
2.25,1.78,1.7399999999999998,3.2400000000000007,3.0,12260.0,13400.0,2940.0,4910.0,3717.0,3943.0,Z
2.23,1.71,1.72,3.2400000000000007,3.05,12368.0,13632.0,2604.0,4130.0,3696.0,4232.0,Z
2.25,1.7399999999999998,1.78,3.2300000000000004,3.05,11584.0,14012.0,2980.0,3680.0,4331.0,4332.0,Z
2.24,1.7000000000000002,1.7000000000000002,3.2400000000000007,3.06,11008.0,14276.0,1688.0,3115.0,3802.0,3922.0,Z
2.24,1.73,1.68,3.2300000000000004,3.0,11988.0,13624.0,1848.0,2742.0,2865.0,3318.0,Z
2.24,1.72,1.72,3.26,3.01,12304.0,13404.0,952.0,3224.0,4129.0,3329.0,Z
2.2,1.72,1.7500000000000002,3.25,3.05,13024.0,13412.0,984.0,2869.0,4560.0,2809.0,Z
2.23,1.7500000000000002,1.7500000000000002,3.25,3.07,12828.0,13788.0,1180.0,2754.0,4988.0,2454.0,Z
2.23,1.72,1.7500000000000002,3.2400000000000007,3.0,12784.0,14028.0,1320.0,1964.0,4514.0,1753.0,Z
2.22,1.7500000000000002,1.76,3.12,3.06,12592.0,14276.0,1580.0,1672.0,4426.0,1306.0,Z
2.25,1.7500000000000002,1.76,3.2300000000000004,3.02,12496.0,13608.0,1276.0,1077.0,3170.0,666.0,Z
2.28,1.66,1.73,3.2400000000000007,3.04,12956.0,13188.0,1512.0,876.0,2200.0,514.0,Z
2.23,1.7500000000000002,1.7500000000000002,3.2400000000000007,3.05,12980.0,12932.0,1392.0,777.0,1643.0,707.0,Z
2.23,1.76,1.7500000000000002,3.2300000000000004,3.01,12488.0,12828.0,904.0,317.0,453.0,516.0,Z
2.21,1.72,1.72,3.25,3.07,12728.0,12928.0,940.0,161.0,476.0,67.0,Z
2.25,1.76,1.66,3.2400000000000007,3.0,13012.0,12828.0,796.0,64.0,1081.0,-149.0,Z
2.23,1.7399999999999998,1.7500000000000002,3.26,3.06,12840.0,12800.0,728.0,-396.0,869.0,-507.0,Z
2.26,1.6099999999999999,1.76,3.26,3.0,12900.0,12592.0,320.0,-828.0,784.0,-809.0,Z
2.19,1.73,1.77,3.16,2.87,13116.0,12344.0,388.0,-1496.0,-395.0,-1085.0,Z
2.25,1.76,1.73,3.26,3.05,12964.0,12196.0,500.0,-2113.0,-603.0,-1170.0,Z
2.25,1.76,1.7500000000000002,3.3000000000000003,3.07,12920.0,12432.0,208.0,-2568.0,-775.0,-1587.0,Z
2.28,1.7500000000000002,1.7500000000000002,3.2099999999999995,3.05,12840.0,12220.0,312.0,-3233.0,-1684.0,-1911.0,Z
2.3,1.72,1.77,3.26,3.03,12824.0,12076.0,324.0,-3429.0,-1649.0,-2197.0,Z
2.21,1.71,1.68,3.11,3.06,12936.0,12176.0,408.0,-3729.0,-1991.0,-2595.0,Z
2.23,1.76,1.73,3.26,3.02,12932.0,12568.0,412.0,-4618.0,-3284.0,-3080.0,Z
2.23,1.7399999999999998,1.66,3.25,3.05,13164.0,12536.0,1432.0,-5029.0,-2805.0,-3091.0,Z
2.25,1.66,1.7399999999999998,3.25,2.99,13200.0,12452.0,1508.0,-6344.0,-4763.0,-3430.0,Z
2.2,1.73,1.76,3.2,3.05,12748.0,12264.0,2384.0,-5951.0,-3405.0,-2770.0,Z
2.22,1.76,1.73,3.2400000000000007,3.02,11732.0,12572.0,2800.0,-6532.0,-4721.0,-3070.0,Z
2.17,1.76,1.73,3.2400000000000007,3.06,10652.0,12812.0,3532.0,-6848.0,-4840.0,-3498.0,Z
2.25,1.73,1.7500000000000002,3.2,3.0,10300.0,13036.0,3532.0,-7106.0,-5379.0,-4357.0,Z
2.25,1.7500000000000002,1.66,3.2400000000000007,3.06,10968.0,12140.0,3704.0,-7745.0,-6829.0,-5083.0,Z
2.23,1.76,1.7500000000000002,3.2199999999999998,3.06,11156.0,12128.0,4116.0,-6969.0,-5124.0,-4526.0,Z
2.22,1.73,1.76,3.2400000000000007,2.99,11172.0,12020.0,4616.0,-7108.0,-5760.0,-4328.0,Z
2.26,1.76,1.7399999999999998,3.2300000000000004,3.05,10676.0,12356.0,4440.0,-6590.0,-4574.0,-3555.0,Z
2.21,1.69,1.71,3.2400000000000007,3.06,10312.0,12544.0,4656.0,-6728.0,-5411.0,-3188.0,Z
2.22,1.69,1.7500000000000002,3.25,3.05,9628.0,12304.0,4356.0,-6426.0,-5321.0,-2619.0,Z
2.26,1.7500000000000002,1.77,3.2,3.05,9132.0,12696.0,4264.0,-6195.0,-5311.0,-2530.0,Z
2.24,1.7399999999999998,1.76,3.2400000000000007,2.93,8904.0,12624.0,4720.0,-5896.0,-5749.0,-2606.0,Z
2.25,1.77,1.72,3.2,3.03,9084.0,12896.0,4448.0,-5872.0,-5609.0,-2691.0,Z
2.23,1.7500000000000002,1.7500000000000002,3.2300000000000004,3.06,9988.0,12624.0,4580.0,-6311.0,-6503.0,-2781.0,Z
2.09,1.66,1.7000000000000002,3.3000000000000003,3.06,10204.0,12564.0,5044.0,-4940.0,-4197.0,-1758.0,Z
2.3,1.66,1.76,3.2199999999999998,2.91,10124.0,12884.0,4280.0,-5751.0,-5870.0,-1927.0,Z
2.2,1.66,1.69,3.2400000000000007,3.02,9084.0,13408.0,5356.0,-5994.0,-4809.0,-2000.0,Z
2.23,1.7500000000000002,1.7500000000000002,3.2300000000000004,3.04,9828.0,12984.0,4304.0,-7370.0,-6134.0,-3184.0,Z
2.24,1.73,1.7399999999999998,3.2099999999999995,3.04,9860.0,12548.0,4964.0,-6721.0,-3845.0,-2870.0,Z
2.28,1.76,1.73,3.2400000000000007,3.06,9680.0,12104.0,4400.0,-6491.0,-3881.0,-2637.0,Z
2.23,1.72,1.76,3.2099999999999995,3.06,9368.0,12612.0,5100.0,-5939.0,-3903.0,-2498.0,Z
2.21,1.77,1.72,3.19,3.02,9428.0,12720.0,5332.0,-6346.0,-5049.0,-2393.0,Z
2.25,1.7500000000000002,1.77,3.02,3.05,8656.0,12996.0,5864.0,-6269.0,-4458.0,-2149.0,Z
2.3,1.73,1.7399999999999998,3.2099999999999995,3.03,8240.0,13084.0,6056.0,-6732.0,-5085.0,-2336.0,Z
2.26,1.7500000000000002,1.7500000000000002,3.05,3.06,8412.0,13232.0,6476.0,-6475.0,-4992.0,-2554.0,Z
2.21,1.67,1.7500000000000002,3.2400000000000007,3.06,8760.0,12756.0,6756.0,-6117.0,-4396.0,-2481.0,Z
2.23,1.76,1.73,3.2,3.08,8608.0,12880.0,6712.0,-5615.0,-3579.0,-2289.0,Z
2.35,1.7399999999999998,1.73,3.2300000000000004,3.06,8220.0,12984.0,7044.0,-5356.0,-3279.0,-2082.0,Z
2.23,1.7500000000000002,1.72,3.2400000000000007,3.06,7956.0,12728.0,7256.0,-5296.0,-3699.0,-1707.0,Z
2.24,1.73,1.71,3.2300000000000004,3.01,7832.0,12740.0,7380.0,-5047.0,-3353.0,-1256.0,Z
2.21,1.76,1.73,3.2400000000000007,3.07,7884.0,12840.0,7524.0,-4943.0,-3509.0,-1118.0,Z
2.24,1.73,1.76,3.25,3.04,7760.0,12900.0,7576.0,-4675.0,-3152.0,-953.0,Z
2.23,1.7500000000000002,1.73,3.2099999999999995,3.09,7948.0,12856.0,7664.0,-4611.0,-3060.0,-995.0,Z
2.25,1.73,1.72,3.2300000000000004,3.05,8412.0,12792.0,7788.0,-4523.0,-2994.0,-1023.0,Z
2.24,1.73,1.77,3.26,3.01,8656.0,12732.0,7976.0,-4212.0,-2083.0,-946.0,Z
2.22,1.73,1.77,3.2300000000000004,3.05,8892.0,12676.0,8388.0,-3940.0,-1415.0,-857.0,Z
2.23,1.72,1.7500000000000002,3.2099999999999995,3.06,8972.0,12916.0,8440.0,-3643.0,-839.0,-782.0,Z
2.25,1.76,1.76,3.26,3.07,8708.0,12748.0,8316.0,-3390.0,-514.0,-849.0,Z
2.3,1.69,1.7000000000000002,3.1400000000000006,3.01,8448.0,12976.0,8216.0,-2982.0,13.0,-904.0,Z
2.19,1.76,1.77,3.25,3.05,8296.0,13180.0,8048.0,-2840.0,-422.0,-1175.0,Z
2.24,1.72,1.76,3.2400000000000007,3.06,8432.0,13152.0,8300.0,-2687.0,-628.0,-1359.0,Z
2.25,1.71,1.77,3.25,2.88,8688.0,13128.0,8032.0,-2253.0,-270.0,-1344.0,Z
2.22,1.7500000000000002,1.77,3.2400000000000007,3.06,8760.0,13196.0,8256.0,-1946.0,-447.0,-1435.0,Z
2.25,1.73,1.7399999999999998,3.2099999999999995,3.04,9076.0,13260.0,7952.0,-1588.0,-212.0,-1359.0,Z
2.22,1.76,1.76,3.2300000000000004,3.06,8736.0,13308.0,7828.0,-1275.0,-29.0,-1266.0,Z
2.25,1.76,1.71,3.2099999999999995,3.04,8412.0,13552.0,7628.0,-1009.0,-28.0,-1235.0,Z
2.19,1.7500000000000002,1.7500000000000002,3.2300000000000004,3.07,8488.0,13400.0,7600.0,-932.0,-449.0,-1239.0,Z
2.21,1.73,1.7500000000000002,3.2300000000000004,3.07,8228.0,13344.0,7428.0,-607.0,-276.0,-1027.0,Z
2.23,1.73,1.76,3.2199999999999998,3.06,8316.0,13128.0,7440.0,-471.0,-616.0,-964.0,Z
2.22,1.71,1.81,3.2400000000000007,3.06,8400.0,13144.0,7332.0,-256.0,-312.0,-806.0,Z
2.24,1.76,1.7500000000000002,3.2400000000000007,2.92,8568.0,12984.0,7376.0,-141.0,-139.0,-612.0,Z
2.25,1.66,1.76,3.2400000000000007,3.07,8868.0,12976.0,7328.0,-51.0,-91.0,-352.0,Z
2.25,1.73,1.72,3.2400000000000007,3.03,8844.0,12908.0,7572.0,122.0,340.0,-22.0,Z
2.25,1.76,1.73,3.2300000000000004,3.06,8696.0,13020.0,7172.0,108.0,385.0,127.0,Z
2.23,1.76,1.67,3.2199999999999998,3.07,8620.0,12988.0,7140.0,259.0,323.0,354.0,Z
2.24,1.7500000000000002,1.7399999999999998,3.25,3.06,8384.0,12916.0,6960.0,216.0,-172.0,318.0,Z
2.23,1.76,1.7399999999999998,3.2300000000000004,3.06,8780.0,12816.0,6840.0,467.0,82.0,315.0,Z
2.25,1.71,1.76,3.2400000000000007,3.08,8704.0,12788.0,6716.0,453.0,-164.0,316.0,Z
2.23,1.7399999999999998,1.76,3.19,3.01,8824.0,12732.0,6664.0,485.0,-403.0,215.0,Z
2.25,1.7500000000000002,1.76,3.2300000000000004,3.08,8920.0,12880.0,6700.0,514.0,-526.0,136.0,Z
2.24,1.77,1.7500000000000002,3.2300000000000004,3.03,9088.0,12940.0,6544.0,586.0,-278.0,53.0,Z
2.23,1.76,1.76,3.26,3.06,8988.0,13040.0,6300.0,398.0,-726.0,-78.0,Z
2.24,1.77,1.76,3.25,3.07,9020.0,13032.0,6396.0,348.0,-606.0,-121.0,Z
2.23,1.69,1.77,3.2,3.05,8996.0,12956.0,6308.0,237.0,-572.0,-188.0,Z
2.21,1.6500000000000001,1.77,3.18,2.94,8888.0,13080.0,6220.0,136.0,-187.0,-277.0,Z
2.25,1.7399999999999998,1.69,3.2199999999999998,3.01,8780.0,13256.0,6100.0,-9.0,61.0,-272.0,Z
2.25,1.76,1.76,3.2,3.06,8908.0,13224.0,6556.0,-109.0,89.0,-331.0,Z
2.23,1.7500000000000002,1.76,3.2300000000000004,3.03,8716.0,13232.0,5912.0,-157.0,-46.0,-268.0,Z
2.22,1.73,1.76,3.2300000000000004,3.08,8724.0,12996.0,6356.0,-111.0,370.0,-112.0,Z
2.23,1.7500000000000002,1.73,3.2400000000000007,3.06,8700.0,13240.0,6044.0,-279.0,283.0,-95.0,Z
2.19,1.7500000000000002,1.73,3.2400000000000007,3.03,8548.0,13168.0,6344.0,-254.0,428.0,-30.0,Z
2.22,1.7500000000000002,1.76,3.2199999999999998,3.06,8480.0,13188.0,6312.0,-344.0,485.0,14.0,Z
2.23,1.7399999999999998,1.73,3.2400000000000007,3.07,8516.0,13168.0,6444.0,-359.0,574.0,76.0,Z
2.24,1.72,1.69,3.26,3.03,8596.0,13048.0,6392.0,-515.0,497.0,129.0,Z
2.24,1.76,1.73,3.2300000000000004,3.07,8724.0,13064.0,6516.0,-517.0,630.0,282.0,Z
2.18,1.6399999999999997,1.76,3.2400000000000007,2.87,8696.0,13104.0,6500.0,-399.0,887.0,436.0,Z
2.23,1.7500000000000002,1.72,3.2,3.08,8760.0,13128.0,6420.0,-287.0,985.0,542.0,Z
2.21,1.6500000000000001,1.7500000000000002,3.08,3.01,8520.0,13192.0,6464.0,6.0,1311.0,608.0,Z
2.23,1.7000000000000002,1.73,3.2099999999999995,3.06,8500.0,13328.0,6448.0,131.0,1124.0,569.0,Z
2.25,1.76,1.73,3.2400000000000007,3.06,8500.0,13528.0,6448.0,261.0,965.0,513.0,Z
2.23,1.73,1.77,3.2400000000000007,3.08,8716.0,13212.0,6432.0,259.0,723.0,455.0,Z
2.23,1.73,1.77,3.2199999999999998,3.05,8596.0,13256.0,6400.0,341.0,719.0,464.0,Z
2.24,1.7500000000000002,1.67,3.2300000000000004,3.06,8824.0,13320.0,6396.0,285.0,558.0,339.0,Z
2.23,1.7399999999999998,1.77,3.2400000000000007,3.08,8876.0,13176.0,6428.0,361.0,900.0,368.0,Z
2.0,1.76,1.7399999999999998,3.2400000000000007,3.03,8872.0,13272.0,6420.0,250.0,1164.0,280.0,Z
2.21,1.72,1.76,3.2199999999999998,3.06,9048.0,13232.0,6232.0,174.0,1162.0,228.0,Z
2.26,1.66,1.77,3.3000000000000003,3.02,6600.0,14744.0,2408.0,-301.0,-517.0,-770.0,Z
2.27,1.76,1.67,3.3000000000000003,3.07,6720.0,14684.0,2660.0,-317.0,-109.0,-717.0,Z
2.26,1.76,1.7399999999999998,3.3000000000000003,3.04,6556.0,14976.0,2544.0,-415.0,-46.0,-750.0,Z
2.26,1.76,1.7399999999999998,3.3000000000000003,3.07,6876.0,15028.0,2520.0,-578.0,119.0,-629.0,Z
2.26,1.7500000000000002,1.73,3.3000000000000003,3.08,6464.0,14876.0,2348.0,-574.0,621.0,-394.0,Z
2.26,1.67,1.77,3.3000000000000003,3.08,6164.0,15056.0,2344.0,-703.0,205.0,-324.0,Z
2.26,1.76,1.76,3.3000000000000003,3.04,6216.0,14836.0,2212.0,-747.0,-187.0,-230.0,Z
2.21,1.77,1.69,3.1300000000000003,3.09,6248.0,14936.0,2236.0,-956.0,-825.0,-193.0,Z
2.27,1.7399999999999998,1.76,3.3000000000000003,3.05,6432.0,14816.0,2420.0,-1066.0,-716.0,-155.0,Z
2.06,1.7500000000000002,1.67,3.3000000000000003,3.08,6540.0,14944.0,2288.0,-1067.0,-730.0,-111.0,Z
2.28,1.77,1.71,3.1,3.04,6624.0,14780.0,2488.0,-941.0,-206.0,-82.0,Z
2.27,1.76,1.7399999999999998,3.3000000000000003,3.08,6808.0,14808.0,2456.0,-737.0,261.0,-6.0,Z
2.22,1.73,1.7399999999999998,3.3000000000000003,3.07,6796.0,14820.0,2404.0,-696.0,-35.0,-54.0,Z
2.25,1.71,1.77,3.3000000000000003,3.08,6632.0,14772.0,2188.0,-693.0,-84.0,49.0,Z
2.35,1.76,1.73,3.18,3.07,6772.0,14784.0,1972.0,-904.0,-560.0,70.0,Z
2.28,1.7399999999999998,1.73,3.3000000000000003,3.08,6840.0,14940.0,2060.0,-962.0,-453.0,69.0,Z
2.27,1.77,1.78,3.3000000000000003,3.08,6948.0,14936.0,1820.0,-1188.0,-695.0,-5.0,Z
2.25,1.73,1.73,3.3000000000000003,3.04,7100.0,14944.0,2080.0,-1320.0,-787.0,-119.0,Z
2.26,1.73,1.77,3.3000000000000003,3.06,7068.0,14884.0,2248.0,-1259.0,-269.0,-117.0,Z
2.26,1.67,1.7399999999999998,3.3000000000000003,3.07,7168.0,14648.0,1960.0,-1352.0,-338.0,-230.0,Z
2.27,1.7500000000000002,1.7399999999999998,3.3000000000000003,3.03,7236.0,14648.0,1752.0,-1210.0,366.0,-241.0,Z
2.28,1.77,1.72,3.3000000000000003,3.07,7628.0,14640.0,1836.0,-1258.0,354.0,-419.0,Z
2.27,1.7500000000000002,1.72,3.3000000000000003,3.04,7356.0,14584.0,1240.0,-1065.0,743.0,-355.0,Z
2.25,1.77,1.77,3.3000000000000003,3.05,7784.0,14556.0,1048.0,-1287.0,264.0,-622.0,Z
2.25,1.73,1.77,3.3000000000000003,2.96,8084.0,14404.0,1272.0,-1115.0,1020.0,-636.0,Z
2.27,1.72,1.7500000000000002,3.3000000000000003,3.06,8356.0,14304.0,652.0,-1571.0,139.0,-928.0,Z
2.28,1.76,1.76,3.3000000000000003,3.05,8536.0,14144.0,524.0,-1743.0,235.0,-1075.0,Z
2.29,1.77,1.7500000000000002,3.3000000000000003,3.06,9004.0,13900.0,108.0,-2104.0,-115.0,-1315.0,Z
2.27,1.68,1.71,3.2199999999999998,3.04,9160.0,13760.0,204.0,-2195.0,406.0,-1501.0,Z
2.27,1.76,1.7500000000000002,3.3000000000000003,3.03,9188.0,13732.0,-264.0,-2691.0,8.0,-1895.0,Z
2.25,1.71,1.77,3.3000000000000003,3.07,9172.0,13492.0,272.0,-2670.0,1007.0,-1911.0,Z
2.28,1.72,1.76,3.17,3.03,8680.0,13864.0,204.0,-2771.0,783.0,-1898.0,Z
2.28,1.76,1.72,3.3000000000000003,3.08,8164.0,14052.0,232.0,-3359.0,-1782.0,-1989.0,Z
2.23,1.76,1.7000000000000002,3.3000000000000003,3.03,8308.0,14112.0,376.0,-3912.0,-4035.0,-2035.0,Z
2.25,1.71,1.73,3.3000000000000003,3.07,8924.0,14212.0,464.0,-4228.0,-5218.0,-1987.0,Z
2.27,1.7500000000000002,1.7399999999999998,3.3000000000000003,3.06,9108.0,14452.0,672.0,-4666.0,-6049.0,-2070.0,Z
2.28,1.71,1.7399999999999998,3.3000000000000003,3.07,9612.0,14868.0,1060.0,-5248.0,-6578.0,-2390.0,Z
2.25,1.7500000000000002,1.7399999999999998,3.3000000000000003,3.06,9800.0,15416.0,1664.0,-5573.0,-6026.0,-2515.0,Z
2.25,1.77,1.76,3.3000000000000003,3.08,9676.0,15412.0,1664.0,-6247.0,-5925.0,-2984.0,Z
2.27,1.69,1.7500000000000002,3.3000000000000003,3.07,9052.0,15636.0,2392.0,-6008.0,-3293.0,-2989.0,Z
2.11,1.7500000000000002,1.7399999999999998,3.3000000000000003,3.06,8004.0,15736.0,2484.0,-6631.0,-3925.0,-3626.0,Z
2.25,1.76,1.73,3.3000000000000003,3.03,7188.0,15812.0,3600.0,-6832.0,-4005.0,-4131.0,Z
2.27,1.76,1.7399999999999998,3.3000000000000003,3.06,6208.0,15600.0,4032.0,-7296.0,-5399.0,-4492.0,Z
2.25,1.76,1.7399999999999998,3.12,3.06,5860.0,15308.0,4752.0,-7413.0,-5735.0,-4630.0,Z
2.24,1.76,1.73,3.3000000000000003,3.08,5420.0,15072.0,5672.0,-7244.0,-6061.0,-4535.0,Z
2.21,1.76,1.76,3.3000000000000003,3.05,4988.0,14836.0,5960.0,-7148.0,-6828.0,-4217.0,Z
2.27,1.71,1.7500000000000002,3.3000000000000003,3.05,4424.0,14696.0,6492.0,-6845.0,-7201.0,-3847.0,Z
2.24,1.76,1.68,3.3000000000000003,3.03,4760.0,14972.0,7280.0,-6335.0,-7496.0,-3374.0,Z
2.25,1.7399999999999998,1.76,3.3000000000000003,3.08,4072.0,14860.0,8208.0,-5495.0,-5799.0,-3114.0,Z
2.21,1.73,1.76,3.3000000000000003,3.06,3660.0,14752.0,7856.0,-4849.0,-4676.0,-2816.0,Z
2.27,1.76,1.76,3.3000000000000003,3.07,3744.0,14444.0,7824.0,-4401.0,-4718.0,-2385.0,Z
2.24,1.76,1.73,3.3000000000000003,3.08,3540.0,14440.0,8208.0,-3812.0,-4388.0,-1951.0,Z
2.3,1.6399999999999997,1.72,3.3000000000000003,3.07,3580.0,14704.0,8084.0,-3643.0,-4447.0,-1936.0,Z
2.26,1.7500000000000002,1.76,3.3000000000000003,3.03,3464.0,14388.0,8156.0,-3324.0,-4108.0,-1759.0,Z
2.24,1.71,1.76,3.3000000000000003,3.1,3224.0,14484.0,8040.0,-3130.0,-3877.0,-1601.0,Z
2.26,1.72,1.76,3.3000000000000003,3.07,3476.0,14436.0,8224.0,-2953.0,-3720.0,-1622.0,Z
2.27,1.67,1.77,3.3000000000000003,3.09,3476.0,14236.0,7876.0,-2470.0,-2813.0,-1492.0,Z
2.22,1.73,1.68,3.3000000000000003,3.07,3672.0,14348.0,7896.0,-2030.0,-2697.0,-1344.0,Z
2.26,1.72,1.7500000000000002,3.3000000000000003,3.07,3500.0,14340.0,7808.0,-1627.0,-2086.0,-1357.0,Z
2.27,1.7000000000000002,1.7000000000000002,3.3000000000000003,3.06,3556.0,14364.0,7572.0,-1387.0,-2071.0,-1408.0,Z
2.25,1.67,1.69,3.3000000000000003,3.03,3328.0,14504.0,7536.0,-1013.0,-1519.0,-1182.0,Z
2.23,1.76,1.77,3.3000000000000003,3.02,3228.0,14464.0,7120.0,-1070.0,-2212.0,-1233.0,Z
2.25,1.72,1.77,3.3000000000000003,3.06,3448.0,14364.0,7448.0,-802.0,-2201.0,-1115.0,Z
2.26,1.77,1.7399999999999998,3.3000000000000003,3.04,3496.0,14108.0,7244.0,-503.0,-1970.0,-882.0,Z
2.25,1.7399999999999998,1.77,3.3000000000000003,3.07,3332.0,14264.0,6996.0,-230.0,-1580.0,-626.0,Z
2.26,1.71,1.7399999999999998,3.3000000000000003,3.07,3176.0,14004.0,7208.0,119.0,-856.0,-481.0,Z
2.27,1.77,1.7500000000000002,3.3000000000000003,2.92,3024.0,14064.0,6656.0,360.0,-281.0,-231.0,Z
2.26,1.77,1.73,3.3000000000000003,3.07,2996.0,13676.0,6812.0,688.0,-315.0,20.0,Z
2.27,1.7399999999999998,1.7399999999999998,3.3000000000000003,3.02,2736.0,13504.0,6704.0,906.0,81.0,346.0,Z
2.25,1.67,1.76,3.3000000000000003,3.02,2856.0,13412.0,6688.0,936.0,16.0,695.0,Z
2.21,1.77,1.71,3.3000000000000003,3.07,2680.0,13024.0,6612.0,1105.0,-249.0,1118.0,Z
2.27,1.76,1.7500000000000002,3.3000000000000003,3.07,2680.0,13116.0,6676.0,1282.0,-658.0,1504.0,Z
2.24,1.71,1.7500000000000002,3.3000000000000003,3.0,3060.0,12992.0,6260.0,1685.0,-886.0,1973.0,Z
2.27,1.76,1.77,3.3000000000000003,3.06,3252.0,13172.0,6256.0,2531.0,117.0,2648.0,Z
2.36,1.7399999999999998,1.68,3.3000000000000003,3.07,3632.0,13020.0,6140.0,2869.0,-249.0,2991.0,Z
2.25,1.77,1.77,3.3000000000000003,3.03,3904.0,13008.0,6156.0,3586.0,882.0,3472.0,Z
2.26,1.72,1.77,3.3000000000000003,3.08,4172.0,13312.0,6072.0,3836.0,1112.0,3758.0,Z
2.26,1.76,1.71,3.3000000000000003,3.06,4636.0,13632.0,6280.0,3995.0,1999.0,3975.0,Z
2.27,1.76,1.76,3.2400000000000007,3.06,4684.0,13840.0,6292.0,4176.0,3392.0,4332.0,Z
2.24,1.7399999999999998,1.68,3.3000000000000003,3.07,4392.0,13916.0,5832.0,4110.0,3676.0,4569.0,Z
2.22,1.77,1.76,3.3000000000000003,3.03,4304.0,13904.0,5396.0,4094.0,3365.0,4778.0,Z
2.22,1.71,1.76,3.19,3.03,4528.0,14004.0,5328.0,3811.0,2422.0,4836.0,Z
2.27,1.76,1.77,3.3000000000000003,3.08,4892.0,14464.0,4848.0,3572.0,2461.0,4822.0,Z
2.28,1.73,1.71,3.3000000000000003,3.03,5616.0,14760.0,4480.0,3205.0,2260.0,4616.0,Z
2.3,1.71,1.77,3.3000000000000003,3.08,6164.0,14868.0,4496.0,3094.0,3302.0,4460.0,Z
2.26,1.7500000000000002,1.77,3.19,3.06,6396.0,15040.0,4176.0,2791.0,3599.0,4250.0,Z
2.22,1.71,1.77,3.3000000000000003,3.07,6348.0,14908.0,4240.0,2548.0,4066.0,4178.0,Z
2.28,1.77,1.6399999999999997,3.3000000000000003,3.03,6316.0,15164.0,4188.0,1992.0,3989.0,3969.0,Z
2.26,1.7399999999999998,1.77,3.3000000000000003,3.08,6636.0,15368.0,3708.0,1411.0,3469.0,3727.0,Z
2.27,1.76,1.7500000000000002,3.17,2.94,6800.0,15284.0,4160.0,1458.0,4367.0,3644.0,Z
2.28,1.7500000000000002,1.7399999999999998,3.3000000000000003,3.06,6900.0,15752.0,2836.0,590.0,3163.0,3086.0,Z
2.26,1.77,1.77,3.3000000000000003,3.06,7228.0,15512.0,3304.0,653.0,3741.0,2906.0,Z
2.27,1.73,1.68,3.26,3.06,7084.0,15504.0,2664.0,491.0,3876.0,2558.0,Z
2.26,1.77,1.7399999999999998,3.3000000000000003,3.08,7404.0,15212.0,2816.0,57.0,3466.0,2110.0,Z
2.25,1.76,1.72,3.3000000000000003,3.02,7648.0,15380.0,3168.0,-186.0,3541.0,2081.0,Z
2.31,1.77,1.72,3.18,3.04,7520.0,15572.0,3516.0,-167.0,4201.0,2262.0,Z
2.26,1.7399999999999998,1.77,3.3000000000000003,3.05,7284.0,15568.0,3592.0,-406.0,4016.0,2364.0,Z
2.28,1.76,1.68,3.3000000000000003,3.06,6892.0,15472.0,4288.0,-230.0,4393.0,2652.0,Z
2.27,1.77,1.68,3.3000000000000003,3.06,7188.0,15148.0,3444.0,-563.0,2716.0,2716.0,Z
2.33,1.7399999999999998,1.7399999999999998,3.3000000000000003,3.03,7616.0,14508.0,4080.0,-261.0,2562.0,2914.0,Z
2.25,1.78,1.67,3.3000000000000003,3.06,7984.0,14444.0,4096.0,215.0,3607.0,2998.0,Z
2.28,1.77,1.73,3.3000000000000003,3.06,8476.0,14264.0,4684.0,665.0,4679.0,3049.0,Z
2.31,1.7399999999999998,1.76,3.3000000000000003,3.02,8444.0,14216.0,4756.0,750.0,4461.0,3122.0,Z
2.26,1.78,1.76,3.3000000000000003,3.04,8704.0,13564.0,4968.0,761.0,3977.0,3388.0,Z
2.26,1.78,1.7399999999999998,3.3000000000000003,3.05,8768.0,13532.0,5400.0,1055.0,3780.0,3853.0,Z
2.23,1.78,1.73,3.3000000000000003,3.07,8408.0,13256.0,5000.0,1453.0,3515.0,4318.0,Z
2.26,1.76,1.77,3.3000000000000003,3.0,8968.0,12772.0,4952.0,1809.0,2935.0,4522.0,Z
2.28,1.76,1.78,3.3000000000000003,3.07,9756.0,12696.0,5204.0,2969.0,4389.0,5147.0,Z
2.26,1.7399999999999998,1.67,3.3000000000000003,3.02,9988.0,13000.0,4888.0,3710.0,5424.0,5265.0,Z
2.26,1.7500000000000002,1.72,3.3000000000000003,3.02,10216.0,13336.0,4548.0,4036.0,5646.0,5010.0,Z
2.26,1.78,1.7399999999999998,3.3000000000000003,3.06,10520.0,13304.0,4272.0,4096.0,5541.0,4671.0,Z
2.26,1.7399999999999998,1.72,3.3000000000000003,3.06,10460.0,13640.0,3716.0,3827.0,5042.0,4260.0,Z
2.27,1.7500000000000002,1.77,3.3000000000000003,3.03,10640.0,13528.0,3720.0,3512.0,4545.0,3774.0,Z
2.24,1.7399999999999998,1.71,3.3000000000000003,3.05,10896.0,13476.0,3568.0,3341.0,3987.0,3546.0,Z
2.27,1.7500000000000002,1.77,3.3000000000000003,2.83,10856.0,13396.0,3544.0,3172.0,3616.0,3415.0,Z
2.22,1.7500000000000002,1.77,3.3000000000000003,3.03,10600.0,13576.0,3140.0,3430.0,4167.0,3514.0,Z
2.27,1.77,1.77,3.3000000000000003,3.05,10620.0,13740.0,3192.0,3130.0,3202.0,3125.0,Z
2.24,1.67,1.78,3.3000000000000003,3.06,10936.0,13784.0,3248.0,2952.0,2687.0,2783.0,Z
2.26,1.77,1.79,3.3000000000000003,3.02,10936.0,13444.0,3476.0,2777.0,2684.0,2630.0,Z
2.32,1.78,1.7500000000000002,3.3000000000000003,3.06,10680.0,13564.0,3024.0,2542.0,2472.0,2441.0,Z
2.27,1.77,1.79,3.3000000000000003,3.06,11096.0,13008.0,2800.0,2167.0,1365.0,2210.0,Z
2.23,1.78,1.7399999999999998,3.2799999999999994,3.07,11084.0,12972.0,2740.0,2403.0,1948.0,2118.0,Z
2.26,1.69,1.8500000000000003,3.3000000000000003,3.02,10920.0,13128.0,2668.0,2124.0,1738.0,1660.0,Z
2.27,1.78,1.78,3.3000000000000003,3.06,10704.0,13484.0,2712.0,1886.0,1717.0,1270.0,Z
2.27,1.7399999999999998,1.78,3.3000000000000003,3.06,10560.0,13560.0,2624.0,1404.0,736.0,1028.0,Z
2.26,1.76,1.7500000000000002,3.3000000000000003,3.05,10724.0,13564.0,3016.0,937.0,-89.0,992.0,Z
2.28,1.7500000000000002,1.72,3.3000000000000003,3.05,10668.0,13668.0,2976.0,707.0,155.0,1154.0,Z
2.29,1.73,1.78,3.3000000000000003,3.06,10392.0,13552.0,2380.0,461.0,-87.0,1163.0,Z
2.26,1.77,1.79,3.3000000000000003,2.98,10308.0,13280.0,1968.0,555.0,-42.0,1082.0,Z
2.28,1.77,1.78,3.3000000000000003,3.06,10780.0,13228.0,1624.0,594.0,609.0,565.0,Z
2.27,1.67,1.78,3.3000000000000003,3.02,11412.0,13400.0,1188.0,862.0,1604.0,284.0,Z
2.27,1.7399999999999998,1.86,3.3000000000000003,3.05,11308.0,13764.0,736.0,190.0,1114.0,-194.0,Z
2.24,1.68,1.78,3.1400000000000006,3.01,11652.0,13812.0,260.0,-557.0,135.0,-716.0,Z
2.26,1.83,1.7399999999999998,3.3000000000000003,3.02,12196.0,13412.0,168.0,-1450.0,-820.0,-1203.0,Z
2.28,1.77,1.7500000000000002,3.3000000000000003,3.02,12420.0,13508.0,-164.0,-1941.0,-520.0,-1585.0,Z
2.26,1.7399999999999998,1.76,3.3000000000000003,3.02,11984.0,13464.0,-408.0,-2580.0,-514.0,-2061.0,Z
2.27,1.77,1.68,3.3000000000000003,3.06,11968.0,13384.0,-420.0,-3356.0,-1082.0,-2658.0,Z
2.3,1.77,1.78,3.1400000000000006,3.08,11788.0,13012.0,-856.0,-4116.0,-2209.0,-3286.0,Z
2.25,1.77,1.7500000000000002,3.29,3.04,11492.0,12928.0,-204.0,-4294.0,-1931.0,-3276.0,Z
2.23,1.77,1.7000000000000002,3.16,3.06,11748.0,12852.0,300.0,-5586.0,-4362.0,-3658.0,Z
2.28,1.68,1.78,3.1400000000000006,3.0,11716.0,12636.0,1020.0,-5946.0,-4028.0,-3154.0,Z
2.26,1.77,1.6399999999999997,3.3000000000000003,3.04,11256.0,12752.0,1716.0,-6735.0,-4429.0,-2860.0,Z
2.32,1.78,1.8500000000000003,3.3000000000000003,3.06,10688.0,12740.0,1592.0,-6997.0,-4582.0,-2604.0,Z
2.26,1.77,1.71,3.3000000000000003,3.06,10408.0,12600.0,2380.0,-7309.0,-4737.0,-2850.0,Z
2.25,1.7500000000000002,1.76,3.3000000000000003,3.06,10560.0,12176.0,2400.0,-7400.0,-4923.0,-2967.0,Z
2.23,1.7399999999999998,1.78,3.3000000000000003,3.05,11032.0,12420.0,3596.0,-7102.0,-4298.0,-2256.0,Z
2.24,1.77,1.7500000000000002,3.3000000000000003,3.06,10956.0,12616.0,3844.0,-7871.0,-6045.0,-1808.0,Z
2.28,1.7000000000000002,1.7399999999999998,3.3000000000000003,3.07,9784.0,12800.0,4680.0,-7047.0,-4490.0,-521.0,Z
2.25,1.72,1.72,3.3000000000000003,3.09,8292.0,13476.0,4452.0,-7652.0,-6537.0,-652.0,Z
2.26,1.7500000000000002,1.78,3.3000000000000003,3.08,7556.0,13852.0,5320.0,-7553.0,-6437.0,-1181.0,Z
2.24,1.7399999999999998,1.79,3.2400000000000007,3.01,8576.0,13592.0,4672.0,-8135.0,-7491.0,-2191.0,Z
2.3,1.7500000000000002,1.77,3.29,3.08,9688.0,13092.0,6080.0,-7586.0,-5732.0,-1979.0,Z
2.23,1.78,1.77,3.3000000000000003,2.93,9680.0,13364.0,6064.0,-7015.0,-4263.0,-1582.0,Z
2.29,1.77,1.7399999999999998,3.3000000000000003,3.01,9276.0,13540.0,6572.0,-6780.0,-4251.0,-1265.0,Z
2.23,1.77,1.78,3.3000000000000003,3.04,8972.0,13488.0,6592.0,-6628.0,-4622.0,-980.0,Z
2.26,1.77,1.76,3.3000000000000003,3.08,8420.0,13572.0,6748.0,-6571.0,-5252.0,-883.0,Z
2.28,1.72,1.78,3.3000000000000003,3.02,8036.0,13684.0,6648.0,-6180.0,-5176.0,-1171.0,Z
2.25,1.7399999999999998,1.69,3.3000000000000003,3.04,8304.0,13540.0,6656.0,-5979.0,-5493.0,-1747.0,Z
2.28,1.7000000000000002,1.77,3.29,3.04,8712.0,13176.0,6928.0,-5465.0,-4610.0,-2051.0,Z
2.25,1.78,1.78,3.3000000000000003,3.08,9244.0,13172.0,7108.0,-5238.0,-4373.0,-2412.0,Z
2.23,1.71,1.79,3.3000000000000003,3.05,9120.0,13132.0,6960.0,-4541.0,-2952.0,-2298.0,Z
2.32,1.77,1.6399999999999997,3.12,3.08,8772.0,13048.0,7168.0,-4560.0,-3357.0,-2384.0,Z
2.26,1.76,1.7500000000000002,3.3000000000000003,3.07,8808.0,13024.0,6840.0,-4418.0,-2928.0,-2283.0,Z
2.28,1.77,1.78,3.3000000000000003,3.08,8428.0,13020.0,6796.0,-4322.0,-2652.0,-2249.0,Z
2.37,1.77,1.76,3.3000000000000003,3.08,8172.0,12808.0,6520.0,-4250.0,-3007.0,-2284.0,Z
2.22,1.76,1.79,3.29,3.08,7968.0,12916.0,6568.0,-4241.0,-3484.0,-2465.0,Z
2.26,1.69,1.76,3.3000000000000003,3.08,8400.0,12712.0,7136.0,-4016.0,-3215.0,-2427.0,Z
2.27,1.73,1.78,3.3000000000000003,3.03,8400.0,12788.0,7504.0,-3751.0,-2243.0,-2022.0,Z
2.28,1.71,1.7500000000000002,3.3000000000000003,3.07,8432.0,12888.0,7412.0,-3617.0,-2111.0,-1695.0,Z
2.27,1.77,1.7500000000000002,3.3000000000000003,3.06,8536.0,12440.0,7804.0,-3317.0,-1064.0,-1405.0,Z
2.26,1.77,1.7500000000000002,3.3000000000000003,3.07,8248.0,12600.0,7212.0,-2847.0,464.0,-968.0,Z
2.28,1.77,1.7399999999999998,3.3000000000000003,3.08,7908.0,12496.0,7392.0,-2611.0,1221.0,-829.0,Z
2.23,1.7500000000000002,1.77,3.3000000000000003,3.04,7452.0,12824.0,6892.0,-2281.0,2178.0,-752.0,Z
2.28,1.7399999999999998,1.72,3.3000000000000003,3.07,7252.0,13124.0,6684.0,-2604.0,870.0,-939.0,Z
2.24,1.76,1.76,3.3000000000000003,3.07,7100.0,13316.0,6732.0,-2611.0,968.0,-921.0,Z
2.27,1.67,1.78,3.29,3.07,7332.0,13400.0,6172.0,-3328.0,-757.0,-1237.0,Z
2.28,1.76,1.78,3.3000000000000003,3.04,7864.0,13104.0,6736.0,-3521.0,-1037.0,-1173.0,Z
2.41,1.76,1.79,3.3000000000000003,3.05,8024.0,13196.0,7076.0,-3784.0,-1222.0,-1079.0,Z
2.26,1.7000000000000002,1.78,3.3000000000000003,3.07,8216.0,13260.0,7200.0,-3826.0,-1488.0,-957.0,Z
2.26,1.7500000000000002,1.79,3.11,3.07,8324.0,13256.0,7424.0,-3617.0,-1153.0,-840.0,Z
2.27,1.77,1.7399999999999998,3.3000000000000003,3.08,8176.0,13420.0,7916.0,-3271.0,-614.0,-783.0,Z
2.29,1.67,1.66,3.3000000000000003,3.08,8068.0,13552.0,8012.0,-3027.0,-169.0,-650.0,Z
2.26,1.72,1.79,3.3000000000000003,3.05,7900.0,13488.0,8068.0,-2967.0,-636.0,-676.0,Z
2.33,1.66,1.7399999999999998,3.3000000000000003,3.07,7916.0,13380.0,8104.0,-2628.0,-429.0,-583.0,Z
2.25,1.77,1.78,3.29,3.07,7896.0,13388.0,8164.0,-2308.0,-814.0,-549.0,Z
2.23,1.68,1.78,3.3000000000000003,3.08,7876.0,13252.0,8440.0,-2075.0,-1055.0,-596.0,Z
2.24,1.71,1.76,3.3000000000000003,3.07,8068.0,13224.0,8524.0,-1580.0,-549.0,-459.0,Z
2.26,1.7500000000000002,1.76,3.3000000000000003,2.87,8104.0,13284.0,8332.0,-1274.0,-515.0,-399.0,Z
2.27,1.7500000000000002,1.78,3.3000000000000003,3.07,8156.0,13364.0,8276.0,-895.0,-365.0,-285.0,Z
2.27,1.71,1.79,3.25,3.07,7996.0,13252.0,8200.0,-611.0,-242.0,-325.0,Z
2.26,1.71,1.77,3.3000000000000003,3.08,8000.0,13352.0,7796.0,-382.0,-266.0,-299.0,Z
2.25,1.69,1.7500000000000002,3.3000000000000003,3.06,8128.0,13124.0,7700.0,-190.0,-286.0,-222.0,Z
2.25,1.7399999999999998,1.79,3.3000000000000003,3.05,8080.0,13280.0,7476.0,37.0,-136.0,-192.0,Z
2.23,1.76,1.7500000000000002,3.3000000000000003,2.87,8196.0,13244.0,7432.0,104.0,-318.0,-201.0,Z
2.26,1.76,1.71,3.3000000000000003,3.07,8240.0,13192.0,7200.0,285.0,16.0,-104.0,Z
2.27,1.7399999999999998,1.79,3.3000000000000003,3.02,8320.0,13364.0,7404.0,343.0,118.0,17.0,Z
2.24,1.77,1.79,3.29,3.08,8316.0,13260.0,7192.0,329.0,278.0,36.0,Z
2.28,1.7399999999999998,1.7500000000000002,3.3000000000000003,3.06,8292.0,13268.0,7168.0,303.0,354.0,112.0,Z
2.25,1.72,1.7000000000000002,3.3000000000000003,3.06,8168.0,13252.0,6824.0,265.0,312.0,200.0,Z
2.26,1.7399999999999998,1.77,3.3000000000000003,3.08,8244.0,13148.0,6780.0,178.0,12.0,195.0,Z
2.28,1.78,1.76,3.3000000000000003,3.07,8268.0,13232.0,6840.0,266.0,310.0,185.0,Z
2.25,1.76,1.78,3.3000000000000003,3.06,8436.0,13300.0,6868.0,131.0,30.0,173.0,Z
2.23,1.69,1.79,3.3000000000000003,3.06,8472.0,13144.0,7004.0,88.0,53.0,210.0,Z
2.25,1.7399999999999998,1.79,3.3000000000000003,3.08,8628.0,13260.0,7016.0,-5.0,-182.0,201.0,Z
2.28,1.78,1.76,3.3000000000000003,3.08,8676.0,13208.0,6844.0,-22.0,146.0,238.0,Z
2.04,1.77,1.7500000000000002,3.3000000000000003,3.08,8720.0,13208.0,6732.0,-176.0,125.0,181.0,Z
2.24,1.7399999999999998,1.7399999999999998,3.3000000000000003,3.07,8504.0,13248.0,6768.0,-202.0,470.0,128.0,Z
2.28,1.77,1.7000000000000002,3.3000000000000003,3.06,8800.0,13236.0,6720.0,-252.0,586.0,-62.0,Z
2.25,1.7399999999999998,1.79,3.3000000000000003,3.05,8528.0,13172.0,6748.0,-52.0,824.0,-44.0,Z
2.25,1.77,1.79,3.3000000000000003,3.08,8468.0,13060.0,6680.0,-158.0,611.0,-229.0,Z
2.26,1.78,1.76,3.3000000000000003,3.08,8712.0,13200.0,6772.0,-187.0,586.0,-279.0,Z
2.26,1.7399999999999998,1.78,3.29,3.06,8600.0,13084.0,6628.0,-185.0,681.0,-172.0,Z
2.25,1.77,1.79,3.3000000000000003,3.08,8508.0,13212.0,6596.0,-332.0,189.0,-217.0,Z
2.27,1.76,1.76,3.3000000000000003,3.09,8560.0,13276.0,6784.0,-412.0,-13.0,-297.0,Z
2.26,1.7500000000000002,1.78,3.3000000000000003,3.08,8668.0,13268.0,6840.0,-395.0,208.0,-189.0,Z
2.27,1.77,1.78,3.3000000000000003,3.08,8540.0,13336.0,6864.0,-454.0,271.0,-82.0,Z
2.31,1.77,1.76,3.3000000000000003,3.08,8296.0,13220.0,6832.0,-592.0,-456.0,-278.0,Z
2.25,1.76,1.79,3.3000000000000003,3.07,8588.0,13080.0,6988.0,-459.0,-258.0,-326.0,Z
2.31,1.71,1.79,3.3000000000000003,3.02,8516.0,13100.0,6972.0,-303.0,208.0,-306.0,Z
2.27,1.78,1.79,3.3000000000000003,3.06,8500.0,13188.0,6840.0,-329.0,-49.0,-487.0,Z
2.25,1.7399999999999998,1.78,3.3000000000000003,3.04,8720.0,13160.0,7028.0,-113.0,138.0,-496.0,Z
2.28,1.72,1.76,3.19,3.08,8788.0,13220.0,7068.0,-171.0,41.0,-597.0,Z
2.26,1.77,1.78,3.3000000000000003,2.91,8492.0,13272.0,6848.0,-149.0,349.0,-477.0,Z
2.18,1.76,1.71,3.3000000000000003,3.08,8520.0,13212.0,6936.0,-304.0,-37.0,-386.0,Z
2.27,1.77,1.7500000000000002,3.3000000000000003,3.07,8376.0,13224.0,6680.0,-317.0,-91.0,-391.0,Z
2.24,1.7399999999999998,1.78,3.3000000000000003,3.06,8176.0,13212.0,6784.0,-291.0,-151.0,-334.0,Z
2.27,1.77,1.76,3.3000000000000003,3.07,8364.0,13156.0,6764.0,-335.0,-181.0,-357.0,Z
2.38,1.77,1.76,3.3000000000000003,3.09,8436.0,13168.0,6844.0,-231.0,181.0,-268.0,Z
2.26,1.7399999999999998,1.7500000000000002,3.3000000000000003,3.03,8288.0,13132.0,6784.0,-267.0,42.0,-167.0,Z
2.25,1.8000000000000003,1.79,3.3000000000000003,3.09,8236.0,13076.0,6704.0,-285.0,-34.0,-105.0,Z
2.3,1.77,1.76,3.3000000000000003,3.07,8352.0,13072.0,6596.0,-326.0,72.0,-50.0,Z
2.28,1.76,1.76,3.3000000000000003,3.06,8236.0,13004.0,6764.0,-389.0,7.0,58.0,Z
2.3,1.79,1.72,3.25,3.08,7076.0,14776.0,1916.0,-487.0,-421.0,-228.0,Z
2.28,1.77,1.79,3.2400000000000007,3.08,7140.0,14692.0,2128.0,-465.0,-301.0,-145.0,Z
2.3,1.69,1.77,3.2099999999999995,3.07,7212.0,14820.0,2160.0,-437.0,-338.0,-211.0,Z
2.27,1.79,1.78,3.2400000000000007,3.06,7316.0,14652.0,2084.0,-515.0,-375.0,-283.0,Z
2.3,1.78,1.73,3.2,3.03,7208.0,14612.0,2192.0,-320.0,193.0,-258.0,Z
2.32,1.79,1.7399999999999998,3.25,3.05,7188.0,14700.0,2076.0,-372.0,55.0,-316.0,Z
2.31,1.69,1.7500000000000002,3.26,3.06,7024.0,14664.0,2128.0,-424.0,-7.0,-279.0,Z
2.29,1.7000000000000002,1.73,3.16,3.07,7060.0,14684.0,1964.0,-557.0,-543.0,-328.0,Z
2.3,1.7500000000000002,1.71,3.15,3.06,7076.0,14592.0,2188.0,-456.0,-239.0,-237.0,Z
2.29,1.76,1.7500000000000002,3.2199999999999998,3.07,6988.0,14452.0,2084.0,-384.0,-147.0,-199.0,Z
2.4,1.8000000000000003,1.77,3.2400000000000007,3.07,7068.0,14520.0,2232.0,-320.0,-13.0,-144.0,Z
2.29,1.79,1.72,3.26,3.07,7044.0,14596.0,2032.0,-326.0,2.0,-49.0,Z
2.27,1.79,1.7500000000000002,3.26,3.08,7108.0,14608.0,2176.0,-383.0,-125.0,-3.0,Z
2.34,1.73,1.76,3.2300000000000004,3.06,7020.0,14512.0,2176.0,-429.0,-126.0,28.0,Z
2.31,1.69,1.7399999999999998,3.25,3.05,7056.0,14544.0,2200.0,-374.0,-47.0,83.0,Z
2.15,1.78,1.7399999999999998,3.26,3.05,7092.0,14688.0,1884.0,-365.0,-114.0,15.0,Z
2.29,1.79,1.7399999999999998,3.25,3.06,7252.0,14460.0,1804.0,-347.0,-171.0,-1.0,Z
2.29,1.79,1.7500000000000002,3.2300000000000004,3.01,7496.0,14528.0,1880.0,-344.0,21.0,23.0,Z
2.31,1.78,1.77,3.25,3.02,7664.0,14560.0,1452.0,-326.0,61.0,20.0,Z
2.32,1.79,1.77,3.25,3.08,7660.0,14484.0,1428.0,-478.0,-88.0,-25.0,Z
2.34,1.78,1.76,3.2199999999999998,3.08,8004.0,14524.0,1240.0,-429.0,242.0,8.0,Z
2.3,1.78,1.7500000000000002,3.2400000000000007,3.06,8228.0,14552.0,912.0,-521.0,279.0,-15.0,Z
2.31,1.71,1.73,3.2300000000000004,3.04,8436.0,14588.0,496.0,-689.0,33.0,-126.0,Z
2.27,1.79,1.78,3.2300000000000004,3.07,8636.0,14564.0,244.0,-809.0,-78.0,-212.0,Z
2.29,1.73,1.7500000000000002,3.2,3.03,8668.0,14732.0,68.0,-1078.0,-178.0,-417.0,Z
2.29,1.69,1.72,3.26,3.03,8568.0,14528.0,-272.0,-1381.0,-749.0,-636.0,Z
2.28,1.79,1.78,3.26,3.06,8604.0,14280.0,-108.0,-1520.0,-996.0,-806.0,Z
2.31,1.78,1.77,3.26,3.06,8428.0,14100.0,-264.0,-1518.0,-1246.0,-859.0,Z
2.32,1.76,1.7399999999999998,3.25,3.04,8668.0,13884.0,-456.0,-1700.0,-2221.0,-1060.0,Z
2.26,1.78,1.76,3.2400000000000007,3.07,8604.0,14024.0,-392.0,-1642.0,-1851.0,-991.0,Z
2.28,1.79,1.77,3.0,3.06,8812.0,14256.0,-276.0,-2011.0,-2116.0,-964.0,Z
2.34,1.69,1.78,3.2400000000000007,3.03,8652.0,14548.0,-88.0,-2345.0,-2156.0,-907.0,Z
2.3,1.79,1.7399999999999998,3.2400000000000007,3.06,8472.0,14292.0,-108.0,-3082.0,-3194.0,-1044.0,Z
2.31,1.79,1.76,3.26,2.89,8116.0,14060.0,-164.0,-3370.0,-3361.0,-1046.0,Z
2.3,1.78,1.7399999999999998,3.2400000000000007,3.08,7844.0,13932.0,-180.0,-3686.0,-3905.0,-1200.0,Z
2.29,1.73,1.7000000000000002,3.25,3.05,7648.0,14212.0,-316.0,-4007.0,-4337.0,-1352.0,Z
2.31,1.8799999999999997,1.77,3.02,3.02,8032.0,14476.0,920.0,-4225.0,-3635.0,-1552.0,Z
2.3,1.76,1.78,3.2099999999999995,3.05,8788.0,15008.0,1364.0,-5016.0,-3418.0,-1997.0,Z
2.26,1.76,1.77,3.19,2.94,9112.0,14872.0,1600.0,-5846.0,-2933.0,-2033.0,Z
2.27,1.79,1.78,3.2400000000000007,3.07,8484.0,14532.0,1880.0,-7019.0,-3417.0,-2362.0,Z
2.31,1.79,1.7399999999999998,3.2400000000000007,3.07,7908.0,14220.0,1896.0,-7584.0,-4049.0,-2831.0,Z
2.26,1.7399999999999998,1.7500000000000002,3.2300000000000004,3.06,7476.0,13960.0,1928.0,-7595.0,-3311.0,-3241.0,Z
2.28,1.79,1.7500000000000002,3.2400000000000007,3.0,7120.0,14292.0,2256.0,-7803.0,-3611.0,-3720.0,Z
2.29,1.79,1.66,3.25,3.0,7268.0,14572.0,2860.0,-8202.0,-4023.0,-4199.0,Z
2.27,1.76,1.76,3.2199999999999998,3.05,7860.0,14292.0,4456.0,-8116.0,-3052.0,-4238.0,Z
2.3,1.7000000000000002,1.7500000000000002,3.2400000000000007,3.07,7216.0,14716.0,4248.0,-8443.0,-3922.0,-4425.0,Z
2.26,1.7500000000000002,1.78,3.2300000000000004,3.06,6600.0,14484.0,5168.0,-8540.0,-4212.0,-4484.0,Z
2.27,1.79,1.7000000000000002,3.2400000000000007,3.05,6064.0,14716.0,5600.0,-8185.0,-4663.0,-4797.0,Z
2.28,1.78,1.7399999999999998,3.18,3.05,5212.0,14916.0,5524.0,-7821.0,-4549.0,-4987.0,Z
2.29,1.78,1.78,3.2400000000000007,3.08,5720.0,14444.0,7024.0,-7646.0,-4778.0,-5197.0,Z
2.26,1.77,1.7399999999999998,3.2,2.99,5348.0,14812.0,6896.0,-6731.0,-3076.0,-4686.0,Z
2.29,1.78,1.69,3.2300000000000004,3.0,5244.0,14656.0,7748.0,-6678.0,-4081.0,-4599.0,Z
2.26,1.67,1.77,3.2,3.07,4908.0,14388.0,7928.0,-6211.0,-3851.0,-4057.0,Z
2.29,1.73,1.7399999999999998,3.2400000000000007,2.93,4476.0,14540.0,7696.0,-5506.0,-3928.0,-3493.0,Z
2.25,1.71,1.7399999999999998,3.27,2.91,3920.0,14468.0,7876.0,-5322.0,-4654.0,-3277.0,Z
2.28,1.69,1.76,3.25,3.04,3708.0,14416.0,7700.0,-4542.0,-4065.0,-3026.0,Z
2.3,1.72,1.7500000000000002,3.2099999999999995,3.06,3676.0,14588.0,7640.0,-3871.0,-3207.0,-2770.0,Z
2.28,1.7500000000000002,1.68,3.25,3.07,3708.0,14584.0,7476.0,-3363.0,-2802.0,-2481.0,Z
2.27,1.7399999999999998,1.72,3.19,3.05,3432.0,14328.0,7264.0,-2913.0,-2282.0,-2132.0,Z
2.28,1.7000000000000002,1.71,3.2400000000000007,2.99,4012.0,14636.0,7516.0,-2437.0,-2523.0,-1800.0,Z
2.24,1.7399999999999998,1.7500000000000002,3.2400000000000007,2.95,3884.0,14460.0,7500.0,-1858.0,-2210.0,-1517.0,Z
2.28,1.78,1.77,3.2199999999999998,3.06,3796.0,14496.0,7252.0,-1556.0,-2071.0,-1283.0,Z
2.29,1.76,1.7399999999999998,3.25,3.01,3712.0,14580.0,6820.0,-1292.0,-2072.0,-1097.0,Z
2.3,1.7500000000000002,1.7399999999999998,3.2300000000000004,3.06,4008.0,14564.0,6708.0,-1382.0,-2690.0,-1048.0,Z
2.27,1.77,1.78,3.2400000000000007,3.04,4244.0,14724.0,6688.0,-1287.0,-2354.0,-1058.0,Z
2.28,1.77,1.7399999999999998,3.07,3.05,4280.0,14724.0,6652.0,-1398.0,-2043.0,-1076.0,Z
2.27,1.79,1.79,3.25,3.06,4520.0,14404.0,6956.0,-1303.0,-1399.0,-990.0,Z
2.27,1.7500000000000002,1.7399999999999998,3.2400000000000007,3.06,4536.0,14304.0,6928.0,-1279.0,-853.0,-850.0,Z
2.3,1.7500000000000002,1.71,3.2400000000000007,3.06,4148.0,14176.0,7088.0,-1259.0,-818.0,-769.0,Z
2.28,1.79,1.7500000000000002,3.19,3.06,3684.0,14004.0,6832.0,-963.0,-258.0,-552.0,Z
2.25,1.76,1.7399999999999998,3.2400000000000007,3.05,3720.0,13780.0,7168.0,-952.0,-770.0,-590.0,Z
2.29,1.77,1.76,3.2099999999999995,3.08,3572.0,13508.0,7420.0,-609.0,85.0,-343.0,Z
2.29,1.79,1.73,3.2099999999999995,3.07,3676.0,13620.0,7616.0,-708.0,-352.0,-154.0,Z
2.24,1.77,1.69,3.2400000000000007,3.06,3312.0,13328.0,7604.0,-397.0,194.0,285.0,Z
2.24,1.7000000000000002,1.78,3.2199999999999998,3.06,3316.0,12828.0,7620.0,-265.0,92.0,604.0,Z
2.28,1.76,1.79,3.25,3.06,3380.0,12376.0,7400.0,81.0,454.0,996.0,Z
2.24,1.7500000000000002,1.7399999999999998,3.2300000000000004,3.07,3080.0,12140.0,7300.0,819.0,2178.0,1557.0,Z
2.25,1.79,1.7399999999999998,3.2,3.07,2932.0,12016.0,6944.0,946.0,1527.0,1749.0,Z
2.28,1.78,1.7500000000000002,3.03,3.01,3024.0,12336.0,6652.0,1277.0,2196.0,2128.0,Z
2.28,1.7500000000000002,1.77,3.2300000000000004,3.05,3292.0,12828.0,7396.0,1628.0,2931.0,2657.0,Z
2.27,1.73,1.78,3.25,3.0,3744.0,13176.0,7128.0,1356.0,2880.0,3202.0,Z
2.28,1.79,1.78,3.2099999999999995,3.06,3668.0,13436.0,7488.0,1365.0,2547.0,3745.0,Z
2.24,1.77,1.7500000000000002,3.26,3.02,3484.0,13768.0,7092.0,1681.0,2559.0,4289.0,Z
2.28,1.79,1.7399999999999998,3.2400000000000007,3.06,3452.0,13732.0,7036.0,1976.0,1582.0,4697.0,Z
2.3,1.69,1.69,3.25,3.06,3332.0,13444.0,7032.0,2714.0,2121.0,5174.0,Z
2.31,1.76,1.77,3.2300000000000004,3.06,3176.0,13184.0,6944.0,3353.0,2679.0,5635.0,Z
2.27,1.78,1.7500000000000002,3.2400000000000007,3.05,4036.0,12752.0,7356.0,3859.0,3056.0,6211.0,Z
2.27,1.73,1.78,3.2400000000000007,3.05,4948.0,13872.0,7632.0,4429.0,3532.0,7323.0,Z
2.44,1.76,1.78,3.2400000000000007,3.04,5728.0,14144.0,7068.0,4237.0,2474.0,7743.0,Z
2.3,1.76,1.7500000000000002,3.2400000000000007,3.06,5708.0,15020.0,7112.0,5546.0,5260.0,9035.0,Z
2.27,1.76,1.77,3.2300000000000004,3.02,5528.0,14956.0,6688.0,5336.0,3284.0,9028.0,Z
2.28,1.78,1.7500000000000002,3.2199999999999998,3.01,6060.0,14340.0,6452.0,6269.0,4868.0,9398.0,Z
2.3,1.79,1.71,3.2400000000000007,3.05,6248.0,13888.0,5380.0,6642.0,4884.0,9522.0,Z
2.3,1.78,1.78,3.2400000000000007,3.0,6920.0,13916.0,5036.0,7080.0,4693.0,9676.0,Z
2.25,1.79,1.79,3.19,2.97,7932.0,14516.0,4872.0,7433.0,4204.0,9673.0,Z
2.32,1.7399999999999998,1.78,3.25,3.01,8636.0,14744.0,4556.0,7642.0,4166.0,9596.0,Z
2.29,1.78,1.77,3.2099999999999995,3.03,8628.0,14884.0,4064.0,7680.0,4625.0,9309.0,Z
2.3,1.78,1.76,3.2099999999999995,3.0,8772.0,14360.0,3452.0,6771.0,3667.0,8146.0,Z
2.28,1.7399999999999998,1.77,3.2300000000000004,3.03,9792.0,13080.0,3008.0,6518.0,4192.0,7021.0,Z
2.28,1.73,1.79,3.2400000000000007,2.98,10976.0,11816.0,1764.0,6621.0,4733.0,6498.0,Z
2.27,1.73,1.7000000000000002,3.25,2.96,11864.0,12048.0,1172.0,7593.0,5529.0,7133.0,Z
2.27,1.7399999999999998,1.73,3.2300000000000004,2.99,11632.0,13604.0,1564.0,7524.0,5168.0,7589.0,Z
2.25,1.77,1.79,3.2300000000000004,3.0,10816.0,14744.0,1744.0,6713.0,4499.0,7788.0,Z
2.24,1.79,1.7500000000000002,3.2300000000000004,2.95,10972.0,14808.0,604.0,5011.0,2451.0,6903.0,Z
2.27,1.79,1.7399999999999998,3.2400000000000007,2.92,12288.0,13896.0,1176.0,3721.0,1831.0,6278.0,Z
2.26,1.76,1.79,3.25,2.98,12372.0,13700.0,916.0,3414.0,3506.0,5788.0,Z
2.24,1.7399999999999998,1.73,3.25,2.99,12048.0,13932.0,340.0,3410.0,4084.0,5109.0,Z
2.27,1.67,1.78,3.2400000000000007,2.99,12364.0,14212.0,688.0,3345.0,3905.0,4243.0,Z
2.28,1.76,1.78,3.2199999999999998,3.0,12208.0,14540.0,1116.0,2779.0,3459.0,3464.0,Z
2.26,1.79,1.76,3.3000000000000003,3.01,12848.0,14172.0,2048.0,2234.0,3404.0,2942.0,Z
2.27,1.78,1.73,3.2400000000000007,2.96,12700.0,14052.0,2664.0,1568.0,2748.0,3142.0,Z
2.28,1.76,1.8000000000000003,3.27,3.01,11588.0,13676.0,2852.0,1477.0,3020.0,3420.0,Z
2.29,1.76,1.77,3.2099999999999995,3.0,10924.0,13304.0,2020.0,976.0,1223.0,3112.0,Z
2.23,1.78,1.77,3.25,2.96,11292.0,12916.0,2300.0,1504.0,837.0,2747.0,Z
2.27,1.69,1.79,3.25,2.96,11460.0,13200.0,2128.0,2007.0,1285.0,2549.0,Z
2.26,1.76,1.78,3.2400000000000007,2.99,11440.0,13096.0,2696.0,2503.0,2255.0,2196.0,Z
2.26,1.78,1.76,3.26,2.97,11540.0,13052.0,2460.0,2918.0,2573.0,2073.0,Z
2.26,1.76,1.8000000000000003,3.2099999999999995,3.01,11488.0,12592.0,2776.0,2663.0,1662.0,1971.0,Z
2.28,1.7500000000000002,1.76,3.25,3.01,11252.0,12708.0,2428.0,2328.0,936.0,1876.0,Z
2.24,1.79,1.8000000000000003,3.25,3.01,11396.0,12704.0,2216.0,1945.0,742.0,1392.0,Z
2.26,1.78,1.79,3.2099999999999995,2.97,10964.0,13108.0,1924.0,1739.0,1372.0,968.0,Z
2.26,1.76,1.8000000000000003,3.2099999999999995,3.01,10784.0,13236.0,2304.0,1329.0,1433.0,326.0,Z
2.28,1.77,1.8000000000000003,3.17,2.81,10712.0,13348.0,2200.0,994.0,1787.0,-230.0,Z
2.28,1.7500000000000002,1.79,3.2099999999999995,2.99,11056.0,12952.0,2228.0,704.0,2001.0,-712.0,Z
2.27,1.73,1.76,3.25,2.99,11276.0,12816.0,2244.0,610.0,2554.0,-831.0,Z
2.28,1.77,1.7500000000000002,3.25,2.98,11332.0,12568.0,2364.0,464.0,2796.0,-767.0,Z
2.25,1.78,1.77,3.26,2.97,11424.0,12700.0,2592.0,182.0,2350.0,-586.0,Z
2.29,1.79,1.79,3.2199999999999998,3.0,10848.0,12756.0,2168.0,35.0,2251.0,-452.0,Z
2.24,1.76,1.79,3.2199999999999998,3.0,11068.0,12588.0,2024.0,-216.0,1470.0,-583.0,Z
2.29,1.79,1.77,3.26,2.97,11376.0,12132.0,1356.0,-147.0,1450.0,-603.0,Z
2.27,1.7500000000000002,1.79,3.09,2.96,11580.0,12076.0,856.0,165.0,1780.0,-625.0,Z
2.26,1.79,1.8000000000000003,3.26,3.0,12268.0,11768.0,580.0,21.0,1253.0,-721.0,Z
2.26,1.79,1.7000000000000002,3.26,2.99,12496.0,12052.0,144.0,-119.0,1253.0,-733.0,Z
2.27,1.69,1.8000000000000003,3.2099999999999995,2.98,12776.0,11856.0,-4.0,-824.0,51.0,-865.0,Z
2.28,1.72,1.8000000000000003,3.2799999999999994,2.98,13036.0,11852.0,132.0,-1379.0,22.0,-714.0,Z
2.3,1.78,1.79,3.2,2.96,12848.0,11988.0,-108.0,-2255.0,-764.0,-786.0,Z
2.26,1.78,1.7500000000000002,3.2300000000000004,2.95,12844.0,11820.0,96.0,-2935.0,-1120.0,-884.0,Z
2.26,1.83,1.79,3.25,2.98,12844.0,11988.0,152.0,-3324.0,-1302.0,-996.0,Z
2.23,1.76,1.8000000000000003,3.2199999999999998,2.91,12796.0,11960.0,756.0,-3871.0,-1651.0,-1246.0,Z
2.32,1.76,1.8000000000000003,3.26,2.99,12472.0,11976.0,1032.0,-4275.0,-1839.0,-1487.0,Z
2.26,1.73,1.77,3.2199999999999998,2.94,12276.0,11824.0,1588.0,-4587.0,-1944.0,-1648.0,Z
2.28,1.8399999999999999,1.8000000000000003,3.12,2.99,11892.0,11884.0,1804.0,-4779.0,-2551.0,-1843.0,Z
2.27,1.79,1.77,3.25,2.97,11688.0,11820.0,2232.0,-5064.0,-3189.0,-1929.0,Z
2.26,1.78,1.78,3.2400000000000007,2.99,11460.0,11844.0,2460.0,-5105.0,-3124.0,-1928.0,Z
2.28,1.79,1.8000000000000003,3.2099999999999995,3.01,11260.0,11924.0,2880.0,-5180.0,-3392.0,-1960.0,Z
2.29,1.79,1.77,3.3000000000000003,3.01,10992.0,11904.0,2952.0,-5254.0,-3524.0,-1962.0,Z
2.23,1.8000000000000003,1.79,3.2300000000000004,3.0,10864.0,12104.0,3272.0,-5167.0,-3645.0,-1901.0,Z
2.26,1.73,1.78,3.2400000000000007,3.0,10724.0,12148.0,3348.0,-5333.0,-3956.0,-1749.0,Z
2.28,1.78,1.79,3.2199999999999998,2.95,10604.0,12008.0,3500.0,-5159.0,-3537.0,-1513.0,Z
2.39,1.79,1.77,3.25,2.99,10588.0,11920.0,3444.0,-4983.0,-3456.0,-1186.0,Z
2.25,1.76,1.8000000000000003,3.25,3.01,10360.0,12160.0,3496.0,-4827.0,-3427.0,-940.0,Z
2.28,1.7500000000000002,1.7500000000000002,3.2099999999999995,2.97,10012.0,12364.0,3420.0,-4586.0,-3442.0,-727.0,Z
2.27,1.7399999999999998,1.79,3.2400000000000007,2.91,9704.0,12412.0,3012.0,-4422.0,-3768.0,-677.0,Z
2.3,1.8000000000000003,1.8000000000000003,3.1400000000000006,2.99,10172.0,12256.0,3608.0,-3943.0,-3821.0,-522.0,Z
2.38,1.79,1.77,3.25,2.99,9728.0,12688.0,3668.0,-3704.0,-3627.0,-242.0,Z
2.23,1.79,1.8000000000000003,3.2300000000000004,2.99,10120.0,12652.0,3936.0,-4219.0,-5053.0,-186.0,Z
2.31,1.78,1.7500000000000002,3.25,3.01,10788.0,12676.0,4244.0,-3871.0,-3890.0,368.0,Z
2.27,1.79,1.77,3.2400000000000007,3.01,10180.0,13484.0,3728.0,-4025.0,-3986.0,544.0,Z
2.27,1.79,1.79,3.2300000000000004,3.0,10540.0,13268.0,4264.0,-4516.0,-4600.0,275.0,Z
2.26,1.7399999999999998,1.79,3.19,2.93,10824.0,13388.0,4392.0,-4321.0,-3617.0,111.0,Z
2.29,1.73,1.79,3.25,2.95,10864.0,13092.0,4388.0,-4368.0,-3507.0,-254.0,Z
2.25,1.78,1.77,3.2199999999999998,3.0,10684.0,13056.0,4168.0,-4539.0,-3945.0,-758.0,Z
2.28,1.79,1.8000000000000003,3.18,3.0,11004.0,12556.0,4316.0,-4484.0,-3768.0,-1201.0,Z
2.32,1.79,1.79,3.26,3.0,10976.0,12872.0,4412.0,-4554.0,-3647.0,-1660.0,Z
2.34,1.76,1.7399999999999998,3.2300000000000004,3.01,10940.0,12736.0,4596.0,-4529.0,-3229.0,-1893.0,Z
2.27,1.7399999999999998,1.81,3.2400000000000007,2.83,10696.0,13004.0,4476.0,-4762.0,-3753.0,-2300.0,Z
2.28,1.78,1.76,3.2400000000000007,3.01,10920.0,12740.0,4536.0,-4668.0,-3447.0,-2458.0,Z
2.26,1.76,1.8000000000000003,3.2400000000000007,3.0,10896.0,12772.0,4368.0,-4565.0,-2639.0,-2545.0,Z
2.27,1.69,1.79,3.19,3.0,10696.0,12912.0,4268.0,-4328.0,-1214.0,-2491.0,Z
2.23,1.76,1.81,3.27,2.98,10616.0,12612.0,5268.0,-3584.0,1298.0,-2507.0,Z
2.29,1.79,1.81,3.2,3.0,10232.0,12916.0,4228.0,-4267.0,999.0,-2867.0,Z
2.27,1.78,1.77,3.2400000000000007,3.0,9520.0,13056.0,4444.0,-3613.0,3234.0,-2488.0,Z
2.3,1.76,1.8000000000000003,3.08,2.95,9088.0,13256.0,4060.0,-4693.0,-489.0,-2519.0,Z
2.32,1.76,1.8000000000000003,3.25,3.01,8528.0,13148.0,4736.0,-5103.0,-2020.0,-2262.0,Z
2.27,1.8000000000000003,1.78,3.15,3.02,8752.0,12992.0,4788.0,-5768.0,-3651.0,-2288.0,Z
2.26,1.8000000000000003,1.79,3.2099999999999995,3.0,9096.0,12724.0,5672.0,-5855.0,-3632.0,-1882.0,Z
2.27,1.77,1.81,3.2099999999999995,3.01,8920.0,12900.0,5892.0,-5992.0,-4153.0,-1972.0,Z
2.28,1.76,1.77,3.25,3.02,9164.0,12564.0,6408.0,-5857.0,-4092.0,-2082.0,Z
2.28,1.77,1.76,3.2400000000000007,3.0,9420.0,12572.0,7104.0,-5193.0,-3210.0,-2068.0,Z
2.27,1.78,1.78,3.2300000000000004,3.0,9448.0,12828.0,7440.0,-4748.0,-2529.0,-1992.0,Z
2.28,1.7500000000000002,1.77,3.27,3.0,9124.0,12740.0,7796.0,-4335.0,-2102.0,-1864.0,Z
2.27,1.79,1.78,3.2300000000000004,3.0,8932.0,12856.0,7924.0,-3972.0,-2208.0,-1733.0,Z
2.27,1.8399999999999999,1.77,3.25,3.03,8648.0,13036.0,8008.0,-3438.0,-1941.0,-1683.0,Z
2.29,1.77,1.77,3.2400000000000007,3.01,8596.0,12928.0,7648.0,-3178.0,-2243.0,-1775.0,Z
2.27,1.77,1.8000000000000003,3.25,2.97,8868.0,12968.0,7692.0,-2310.0,-1547.0,-1715.0,Z
2.28,1.7500000000000002,1.8000000000000003,3.27,3.01,8680.0,13096.0,7420.0,-1728.0,-1319.0,-1697.0,Z
2.26,1.7500000000000002,1.71,3.2400000000000007,3.01,8748.0,13248.0,7352.0,-1411.0,-1327.0,-1650.0,Z
2.29,1.7500000000000002,1.78,3.2199999999999998,2.98,8624.0,13252.0,7072.0,-941.0,-614.0,-1408.0,Z
2.36,1.78,1.79,3.2300000000000004,2.95,8644.0,13312.0,6732.0,-636.0,-417.0,-1279.0,Z
2.28,1.79,1.81,3.2199999999999998,2.95,8680.0,13308.0,6636.0,-291.0,-172.0,-1091.0,Z
2.27,1.78,1.77,3.2,3.01,8488.0,13200.0,6128.0,1.0,30.0,-850.0,Z
2.24,1.77,1.8000000000000003,3.2400000000000007,3.01,8556.0,13232.0,5944.0,93.0,28.0,-667.0,Z
2.26,1.78,1.77,3.2400000000000007,3.01,8740.0,13200.0,5712.0,278.0,264.0,-511.0,Z
2.26,1.79,1.77,3.26,3.02,8744.0,13116.0,5608.0,538.0,644.0,-351.0,Z
2.26,1.79,1.81,3.09,3.0,8840.0,13164.0,5452.0,642.0,581.0,-215.0,Z
2.29,1.8000000000000003,1.77,3.2300000000000004,3.0,9208.0,13080.0,5348.0,391.0,102.0,-264.0,Z
2.26,1.79,1.77,3.27,3.01,9472.0,12964.0,5700.0,846.0,1581.0,148.0,Z
2.23,1.77,1.81,3.2300000000000004,3.01,9304.0,13132.0,5552.0,540.0,1346.0,195.0,Z
2.27,1.79,1.77,3.25,2.99,9420.0,13380.0,5432.0,543.0,1827.0,152.0,Z
2.24,1.77,1.76,3.2199999999999998,2.99,9568.0,12836.0,5608.0,516.0,2163.0,7.0,Z
2.24,1.77,1.81,3.12,3.0,9372.0,12900.0,5104.0,674.0,2618.0,-15.0,Z
2.28,1.78,1.79,3.26,3.03,9120.0,12892.0,5244.0,595.0,2259.0,-74.0,Z
2.26,1.73,1.81,3.2099999999999995,3.0,8940.0,12916.0,5176.0,345.0,1221.0,-202.0,Z
2.28,1.7399999999999998,1.71,3.2300000000000004,3.0,9012.0,12880.0,5164.0,141.0,629.0,-257.0,Z
2.26,1.77,1.78,3.25,2.99,9204.0,12996.0,5164.0,97.0,627.0,-128.0,Z
2.29,1.79,1.8000000000000003,3.1,2.89,9304.0,12952.0,5412.0,-168.0,192.0,-230.0,Z
2.26,1.7500000000000002,1.79,3.19,2.89,9528.0,13148.0,5344.0,-167.0,58.0,-198.0,Z
2.26,1.79,1.79,3.2400000000000007,3.0,9856.0,12852.0,5688.0,30.0,620.0,-63.0,Z
2.23,1.77,1.8000000000000003,3.25,3.0,9720.0,13168.0,5556.0,-56.0,790.0,-32.0,Z
2.28,1.78,1.7500000000000002,3.02,3.01,9576.0,12984.0,5320.0,-168.0,1010.0,-66.0,Z
2.28,1.79,1.72,3.2099999999999995,3.01,9676.0,13008.0,5320.0,-168.0,1236.0,-114.0,Z
2.29,1.78,1.79,3.2099999999999995,2.98,9444.0,13164.0,5052.0,-12.0,1633.0,-9.0,Z
2.29,1.79,1.79,3.26,3.01,8860.0,13148.0,4644.0,-237.0,590.0,-229.0,Z
2.23,1.77,1.81,3.3000000000000003,2.95,9272.0,13040.0,5044.0,-296.0,-204.0,-317.0,Z
2.25,1.78,1.79,3.2199999999999998,3.01,9512.0,13256.0,5152.0,-233.0,-103.0,-207.0,Z
2.28,1.79,1.78,3.2400000000000007,3.0,9624.0,13088.0,5484.0,-382.0,-365.0,-113.0,Z
2.27,1.7500000000000002,1.78,2.99,2.95,9528.0,13184.0,5392.0,-414.0,-473.0,-53.0,Z
2.28,1.76,1.8000000000000003,3.2099999999999995,2.97,9732.0,13148.0,5680.0,-448.0,-587.0,-109.0,Z
2.26,1.77,1.7500000000000002,3.2199999999999998,3.0,9692.0,12968.0,5628.0,-233.0,164.0,-3.0,Z
2.26,1.76,1.7000000000000002,3.2300000000000004,2.97,9608.0,13080.0,5428.0,-185.0,376.0,64.0,Z
2.27,1.8000000000000003,1.77,3.2400000000000007,2.96,8952.0,13212.0,5348.0,-42.0,543.0,146.0,Z
2.27,1.79,1.79,3.07,3.0,8796.0,13072.0,4764.0,-108.0,-655.0,-264.0,Z
2.29,1.76,1.79,3.2300000000000004,2.99,9376.0,12900.0,5196.0,308.0,-148.0,-323.0,Z
2.24,1.77,1.81,3.2400000000000007,2.99,9344.0,13040.0,4980.0,146.0,-376.0,-341.0,Z
2.26,1.77,1.8000000000000003,3.2300000000000004,3.0,9736.0,13164.0,5424.0,126.0,-537.0,-166.0,Z
2.27,1.77,1.79,3.2199999999999998,2.97,9620.0,13368.0,5284.0,-96.0,-668.0,-126.0,Z
2.25,1.79,1.81,3.2400000000000007,3.0,9536.0,13128.0,5172.0,-143.0,-402.0,-126.0,Z
2.23,1.7500000000000002,1.81,3.2300000000000004,3.0,9624.0,13184.0,5288.0,-156.0,88.0,-176.0,Z
2.27,1.7500000000000002,1.77,3.15,2.98,9608.0,13132.0,5032.0,-166.0,499.0,-214.0,Z
2.23,1.79,1.79,3.1400000000000006,2.89,9264.0,13016.0,4928.0,-191.0,591.0,-244.0,Z
2.22,1.79,1.81,3.25,2.95,9108.0,13016.0,4900.0,-121.0,418.0,-292.0,Z
2.29,1.8000000000000003,1.77,3.25,3.0,9244.0,12988.0,5052.0,-167.0,268.0,-361.0,Z
2.27,1.79,1.7500000000000002,3.25,3.01,7552.0,14612.0,1508.0,-536.0,109.0,-56.0,Z
2.27,1.78,1.78,3.25,3.02,7212.0,14768.0,1360.0,-491.0,-175.0,-70.0,Z
2.28,1.78,1.72,3.2400000000000007,3.0,7308.0,14648.0,1404.0,-703.0,-896.0,-270.0,Z
2.28,1.78,1.77,3.29,3.0,7580.0,14448.0,1380.0,-512.0,-461.0,-235.0,Z
2.26,1.78,1.7500000000000002,3.27,3.04,7640.0,14580.0,1568.0,-416.0,-395.0,-170.0,Z
2.3,1.7500000000000002,1.77,3.27,2.98,7732.0,14616.0,1488.0,-497.0,-611.0,-214.0,Z
2.23,1.78,1.7399999999999998,3.2799999999999994,3.02,7628.0,14480.0,1508.0,-331.0,-206.0,-135.0,Z
2.29,1.78,1.7399999999999998,3.27,3.03,7784.0,14436.0,1152.0,-344.0,-242.0,-175.0,Z
2.31,1.76,1.7500000000000002,3.2199999999999998,3.01,7396.0,14552.0,1276.0,-214.0,74.0,-164.0,Z
2.27,1.7000000000000002,1.76,3.29,3.03,7420.0,14440.0,1248.0,-215.0,-158.0,-285.0,Z
2.28,1.68,1.78,3.27,2.99,7576.0,14428.0,1384.0,-264.0,-446.0,-300.0,Z
2.28,1.67,1.73,3.2400000000000007,3.03,7760.0,14400.0,1304.0,-363.0,-653.0,-312.0,Z
2.27,1.76,1.68,3.27,2.99,7848.0,14320.0,1120.0,-395.0,-683.0,-265.0,Z
2.32,1.79,1.77,3.2400000000000007,3.03,7736.0,14296.0,1168.0,-367.0,-550.0,-225.0,Z
2.28,1.7399999999999998,1.76,3.26,3.03,7776.0,14356.0,1204.0,-329.0,-400.0,-157.0,Z
2.23,1.78,1.77,3.3000000000000003,3.04,7532.0,14264.0,1272.0,-446.0,-459.0,-155.0,Z
2.26,1.71,1.7500000000000002,3.27,3.03,7496.0,14316.0,1084.0,-472.0,-301.0,-116.0,Z
2.27,1.78,1.7399999999999998,3.2799999999999994,2.93,7696.0,14204.0,840.0,-451.0,-354.0,-101.0,Z
2.29,1.69,1.72,3.26,3.03,7700.0,14284.0,996.0,-499.0,-470.0,-100.0,Z
2.27,1.79,1.7399999999999998,3.2799999999999994,2.98,7808.0,14148.0,780.0,-529.0,-365.0,-77.0,Z
2.26,1.77,1.77,3.2400000000000007,3.03,8168.0,14024.0,504.0,-575.0,-307.0,-50.0,Z
2.24,1.78,1.73,3.27,2.99,8544.0,14092.0,228.0,-732.0,-93.0,-26.0,Z
2.26,1.7399999999999998,1.78,3.29,2.98,8812.0,14100.0,-40.0,-1001.0,0.0,-215.0,Z
2.3,1.78,1.78,3.29,3.03,8976.0,14108.0,-344.0,-1053.0,629.0,-422.0,Z
2.28,1.78,1.76,3.27,2.89,8924.0,13948.0,-616.0,-1383.0,232.0,-763.0,Z
2.29,1.78,1.68,3.26,3.03,8804.0,13636.0,-816.0,-1719.0,-499.0,-1119.0,Z
2.29,1.78,1.7500000000000002,3.26,3.05,9004.0,13312.0,-1028.0,-1999.0,-1412.0,-1378.0,Z
2.29,1.78,1.79,3.2799999999999994,3.03,8964.0,13320.0,-1228.0,-2241.0,-2062.0,-1552.0,Z
2.27,1.79,1.7399999999999998,3.2799999999999994,3.04,9200.0,13608.0,-1208.0,-2640.0,-2724.0,-1680.0,Z
2.3,1.79,1.77,3.26,3.04,9544.0,13752.0,-816.0,-3118.0,-3208.0,-1810.0,Z
2.27,1.78,1.69,3.27,3.03,9664.0,13704.0,-728.0,-3681.0,-3485.0,-1901.0,Z
2.27,1.78,1.77,3.2400000000000007,3.02,9448.0,13528.0,-668.0,-4013.0,-3380.0,-1901.0,Z
2.27,1.79,1.77,3.18,3.0,9272.0,13988.0,-508.0,-4422.0,-3346.0,-1951.0,Z
2.28,1.78,1.7500000000000002,3.26,3.05,9088.0,14516.0,-108.0,-4913.0,-3165.0,-2049.0,Z
2.32,1.79,1.68,3.26,3.03,8408.0,15012.0,216.0,-5649.0,-3591.0,-2283.0,Z
2.27,1.79,1.77,3.2799999999999994,3.03,8416.0,14788.0,580.0,-6682.0,-5400.0,-2789.0,Z
2.3,1.76,1.78,3.1400000000000006,2.98,8300.0,14400.0,1284.0,-7182.0,-5602.0,-2969.0,Z
2.27,1.7399999999999998,1.7399999999999998,3.26,3.0,8112.0,14132.0,1644.0,-7377.0,-5961.0,-3123.0,Z
2.28,1.79,1.78,3.27,3.0,7840.0,14328.0,2376.0,-7075.0,-5282.0,-3040.0,Z
2.27,1.73,1.79,3.26,3.05,7748.0,14444.0,2696.0,-6956.0,-4987.0,-3165.0,Z
2.26,1.79,1.77,3.27,3.03,7452.0,14628.0,3376.0,-6713.0,-4462.0,-3235.0,Z
2.28,1.79,1.7399999999999998,3.09,3.02,7024.0,14792.0,3868.0,-6097.0,-3908.0,-3084.0,Z
2.28,1.71,1.77,3.27,3.04,6428.0,14980.0,4088.0,-6061.0,-4510.0,-3302.0,Z
2.27,1.77,1.7399999999999998,3.2400000000000007,3.04,6496.0,14892.0,4376.0,-5788.0,-4375.0,-3412.0,Z
2.27,1.7399999999999998,1.73,3.26,3.02,6312.0,14904.0,4388.0,-5451.0,-4583.0,-3558.0,Z
2.29,1.68,1.78,3.2199999999999998,2.84,6196.0,15016.0,4104.0,-4959.0,-4521.0,-3515.0,Z
2.31,1.7000000000000002,1.77,3.2199999999999998,3.0,6236.0,15076.0,4388.0,-4727.0,-4779.0,-3550.0,Z
2.28,1.7500000000000002,1.7399999999999998,3.25,3.02,5940.0,15132.0,4876.0,-4112.0,-4019.0,-3382.0,Z
2.26,1.7399999999999998,1.78,3.17,2.89,5652.0,15184.0,4512.0,-3848.0,-4070.0,-3433.0,Z
2.29,1.7500000000000002,1.78,3.2400000000000007,3.03,5844.0,15008.0,4608.0,-3688.0,-4429.0,-3468.0,Z
2.26,1.78,1.7399999999999998,3.26,3.03,5560.0,14952.0,4504.0,-3164.0,-3952.0,-3242.0,Z
2.28,1.78,1.76,3.2300000000000004,3.04,5316.0,15044.0,4544.0,-2987.0,-4068.0,-3134.0,Z
2.26,1.7500000000000002,1.7000000000000002,3.12,3.03,5364.0,15092.0,4404.0,-2949.0,-4198.0,-2996.0,Z
2.27,1.78,1.7000000000000002,3.27,3.03,4968.0,15028.0,4380.0,-2604.0,-3566.0,-2699.0,Z
2.29,1.7500000000000002,1.76,3.26,3.05,4852.0,14964.0,4296.0,-2656.0,-3944.0,-2563.0,Z
2.23,1.7500000000000002,1.67,3.27,3.03,4764.0,14968.0,4544.0,-2693.0,-4147.0,-2372.0,Z
2.29,1.76,1.77,3.2199999999999998,2.99,4776.0,15132.0,4456.0,-2729.0,-4210.0,-2246.0,Z
2.26,1.78,1.7500000000000002,3.27,3.01,4712.0,15052.0,4580.0,-2620.0,-4022.0,-2143.0,Z
2.27,1.77,1.7500000000000002,3.27,3.04,4764.0,14932.0,4344.0,-2398.0,-3533.0,-2170.0,Z
2.26,1.76,1.7500000000000002,3.26,3.01,4684.0,14936.0,4880.0,-2220.0,-3207.0,-2121.0,Z
2.23,1.79,1.71,3.27,3.0,4700.0,14908.0,4596.0,-2226.0,-3033.0,-2126.0,Z
2.26,1.78,1.77,3.29,3.03,4708.0,14980.0,4952.0,-2087.0,-2450.0,-2037.0,Z
2.29,1.76,1.77,3.2400000000000007,3.03,4556.0,15040.0,5064.0,-2084.0,-2272.0,-2017.0,Z
2.25,1.78,1.71,3.26,3.02,4316.0,15020.0,5408.0,-2024.0,-2252.0,-1934.0,Z
2.27,1.78,1.73,3.2099999999999995,3.03,4212.0,14828.0,5484.0,-1797.0,-1902.0,-1770.0,Z
2.36,1.72,1.77,3.26,3.02,3764.0,14888.0,5440.0,-1723.0,-1999.0,-1663.0,Z
2.27,1.7000000000000002,1.77,3.25,3.03,3520.0,14776.0,5700.0,-1545.0,-1580.0,-1549.0,Z
2.27,1.7500000000000002,1.69,3.2300000000000004,3.02,3468.0,14652.0,5800.0,-1383.0,-1420.0,-1477.0,Z
2.29,1.77,1.78,3.26,3.02,3532.0,14480.0,6056.0,-1099.0,-1034.0,-1302.0,Z
2.26,1.78,1.8000000000000003,3.27,3.04,3240.0,14316.0,5960.0,-706.0,-547.0,-991.0,Z
2.21,1.78,1.76,3.19,2.98,3112.0,14040.0,6376.0,-373.0,-356.0,-707.0,Z
2.26,1.77,1.7500000000000002,3.25,3.06,2864.0,14020.0,6104.0,13.0,-267.0,-300.0,Z
2.26,1.78,1.78,3.26,2.97,2692.0,13920.0,5948.0,310.0,-77.0,107.0,Z
2.27,1.78,1.72,3.26,3.04,2448.0,13748.0,5956.0,557.0,19.0,450.0,Z
2.24,1.77,1.78,3.29,3.03,2460.0,13432.0,6112.0,1045.0,781.0,857.0,Z
2.29,1.7399999999999998,1.78,3.2199999999999998,3.01,2704.0,13316.0,5772.0,1214.0,746.0,1177.0,Z
2.27,1.79,1.7500000000000002,3.25,3.03,3020.0,13396.0,5724.0,1744.0,1426.0,1759.0,Z
2.3,1.78,1.69,3.26,3.03,3436.0,13420.0,5912.0,1978.0,1403.0,2356.0,Z
2.31,1.76,1.78,3.2199999999999998,2.98,3388.0,13344.0,5728.0,2288.0,1880.0,2958.0,Z
2.26,1.68,1.77,3.16,3.03,3428.0,13240.0,5236.0,2320.0,1873.0,3516.0,Z
2.3,1.7500000000000002,1.77,3.2400000000000007,3.0,3296.0,13372.0,5184.0,2397.0,2122.0,3974.0,Z
2.26,1.77,1.77,3.2199999999999998,2.99,3152.0,13524.0,4672.0,2473.0,2480.0,4101.0,Z
2.27,1.76,1.78,3.2400000000000007,2.98,3864.0,13360.0,4688.0,2503.0,2848.0,3908.0,Z
2.31,1.7399999999999998,1.78,3.25,3.02,4428.0,13564.0,4720.0,2923.0,4437.0,4114.0,Z
2.27,1.7399999999999998,1.73,3.27,3.03,4320.0,13712.0,4748.0,2657.0,4487.0,4106.0,Z
2.27,1.79,1.78,3.26,3.03,4452.0,13652.0,4224.0,2630.0,4894.0,4247.0,Z
2.29,1.79,1.77,3.25,3.04,4488.0,13540.0,4356.0,2598.0,5057.0,4523.0,Z
2.23,1.79,1.76,3.25,3.03,4412.0,13872.0,4432.0,2833.0,6070.0,4915.0,Z
2.3,1.76,1.7500000000000002,3.26,3.02,4404.0,14204.0,4348.0,2786.0,5787.0,5265.0,Z
2.3,1.7399999999999998,1.72,3.18,3.03,4696.0,14340.0,4136.0,2779.0,5869.0,5667.0,Z
2.26,1.77,1.77,3.26,2.99,5292.0,13904.0,3956.0,2746.0,5945.0,6047.0,Z
2.29,1.77,1.7399999999999998,3.2300000000000004,3.02,5900.0,13808.0,3568.0,3164.0,6728.0,6590.0,Z
2.29,1.7399999999999998,1.78,3.2799999999999994,3.02,6576.0,13616.0,3084.0,3627.0,6989.0,7208.0,Z
2.29,1.7399999999999998,1.78,3.2199999999999998,3.0,6748.0,14168.0,2932.0,4201.0,7970.0,7753.0,Z
2.28,1.78,1.77,3.2199999999999998,3.02,7760.0,14596.0,2528.0,3717.0,7081.0,7516.0,Z
2.29,1.8000000000000003,1.69,3.25,3.02,8448.0,14760.0,3004.0,3605.0,7545.0,7740.0,Z
2.27,1.8000000000000003,1.68,3.26,3.02,8512.0,15232.0,2504.0,3307.0,7639.0,7787.0,Z
2.26,1.79,1.77,3.06,3.02,9140.0,14820.0,2864.0,2678.0,6674.0,7436.0,Z
2.26,1.77,1.7500000000000002,3.26,3.01,9336.0,14620.0,2664.0,2768.0,6761.0,7599.0,Z
2.27,1.8000000000000003,1.78,3.2300000000000004,2.85,9180.0,14476.0,2384.0,3025.0,6862.0,7723.0,Z
2.3,1.79,1.71,3.27,3.01,9396.0,14428.0,1956.0,3449.0,6625.0,7584.0,Z
2.27,1.76,1.76,3.25,3.02,9428.0,14620.0,2112.0,4112.0,7412.0,7298.0,Z
2.26,1.8000000000000003,1.78,3.26,2.98,9768.0,14716.0,2428.0,4348.0,7778.0,6661.0,Z
2.29,1.78,1.79,3.2099999999999995,2.99,10912.0,14296.0,2968.0,4124.0,6124.0,6198.0,Z
2.27,1.8000000000000003,1.77,3.25,3.05,12584.0,13408.0,3192.0,4082.0,4599.0,6914.0,Z
2.3,1.79,1.7399999999999998,3.26,3.04,11844.0,14188.0,2644.0,3529.0,1668.0,7594.0,Z
2.28,1.8000000000000003,1.79,3.2,3.03,11952.0,14140.0,1848.0,2829.0,-997.0,6803.0,Z
2.28,1.77,1.79,3.2199999999999998,3.01,12112.0,13828.0,1616.0,3550.0,-20.0,6317.0,Z
2.27,1.8000000000000003,1.7399999999999998,3.2400000000000007,3.03,11728.0,14140.0,1324.0,3870.0,597.0,5529.0,Z
2.28,1.8000000000000003,1.77,3.2400000000000007,3.03,11948.0,13908.0,1552.0,3278.0,-1102.0,4417.0,Z
2.28,1.8500000000000003,1.79,3.19,3.0,13512.0,13196.0,1616.0,2637.0,-2654.0,3582.0,Z
2.29,1.69,1.8000000000000003,3.2400000000000007,3.04,14052.0,13156.0,2348.0,3025.0,-479.0,3634.0,Z
2.33,1.8000000000000003,1.79,3.2400000000000007,3.03,13288.0,13640.0,1312.0,3002.0,295.0,3238.0,Z
2.27,1.8000000000000003,1.76,3.2400000000000007,3.0,13136.0,13440.0,1804.0,2764.0,768.0,2576.0,Z
2.26,1.77,1.79,3.2,3.04,12696.0,13224.0,1416.0,2752.0,1708.0,2298.0,Z
2.3,1.76,1.8000000000000003,3.26,3.03,12544.0,12872.0,1636.0,2547.0,1787.0,1947.0,Z
2.26,1.77,1.79,3.3000000000000003,3.02,12440.0,12404.0,1036.0,2676.0,2495.0,1992.0,Z
2.28,1.77,1.8000000000000003,3.2400000000000007,3.03,12284.0,12528.0,844.0,2395.0,2013.0,1832.0,Z
2.29,1.8000000000000003,1.78,3.2300000000000004,3.0,12212.0,12584.0,868.0,2217.0,2136.0,1657.0,Z
2.27,1.79,1.77,3.25,3.04,11792.0,12724.0,588.0,1887.0,2042.0,1405.0,Z
2.29,1.79,1.81,3.2300000000000004,3.04,11504.0,12752.0,584.0,1626.0,2029.0,1188.0,Z
2.3,1.77,1.8000000000000003,3.05,3.03,11164.0,12696.0,492.0,1447.0,1945.0,757.0,Z
2.25,1.77,1.69,3.2199999999999998,3.04,11828.0,12304.0,192.0,1114.0,1680.0,566.0,Z
2.32,1.8000000000000003,1.8000000000000003,3.2199999999999998,3.0,11884.0,12276.0,224.0,945.0,1448.0,638.0,Z
2.25,1.7500000000000002,1.7399999999999998,3.2400000000000007,3.03,11636.0,12356.0,516.0,505.0,819.0,633.0,Z
2.3,1.78,1.79,3.2300000000000004,2.98,11832.0,12384.0,464.0,269.0,702.0,691.0,Z
2.24,1.73,1.8000000000000003,3.2400000000000007,2.98,11640.0,12396.0,264.0,14.0,774.0,675.0,Z
2.3,1.8000000000000003,1.78,3.2,3.02,11772.0,12324.0,220.0,-141.0,1029.0,432.0,Z
2.25,1.77,1.8000000000000003,3.2199999999999998,2.98,12004.0,12300.0,-100.0,-312.0,1130.0,117.0,Z
2.29,1.77,1.8000000000000003,3.26,3.04,12088.0,12188.0,-84.0,-699.0,1106.0,-313.0,Z
2.28,1.79,1.78,3.2300000000000004,3.03,12340.0,12236.0,8.0,-968.0,1377.0,-458.0,Z
2.29,1.8000000000000003,1.71,3.2400000000000007,3.02,12376.0,12276.0,476.0,-1435.0,1269.0,-614.0,Z
2.28,1.79,1.76,3.2400000000000007,3.03,12004.0,12376.0,272.0,-1957.0,729.0,-729.0,Z
2.28,1.77,1.8000000000000003,3.2099999999999995,3.0,11724.0,12196.0,416.0,-2573.0,-508.0,-999.0,Z
2.28,1.79,1.77,3.25,3.03,11812.0,11892.0,184.0,-2900.0,-1081.0,-1365.0,Z
2.26,1.87,1.78,3.2099999999999995,2.91,11760.0,11788.0,672.0,-3110.0,-1072.0,-1619.0,Z
2.26,1.8000000000000003,1.76,3.2300000000000004,2.98,11680.0,11600.0,580.0,-3421.0,-1503.0,-2029.0,Z
2.27,1.68,1.77,3.2199999999999998,3.02,11888.0,11284.0,1260.0,-3598.0,-1786.0,-2300.0,Z
2.25,1.79,1.79,3.26,2.92,11536.0,11252.0,1392.0,-3858.0,-1724.0,-2288.0,Z
2.28,1.79,1.81,3.2,3.01,11064.0,11116.0,1756.0,-4144.0,-2063.0,-2029.0,Z
2.27,1.77,1.8000000000000003,3.26,2.82,10724.0,11036.0,1180.0,-4785.0,-3247.0,-1901.0,Z
2.28,1.78,1.8000000000000003,3.26,3.0,10672.0,10552.0,1188.0,-5043.0,-3594.0,-1769.0,Z
2.3,1.77,1.72,3.2400000000000007,3.03,10736.0,10524.0,1128.0,-5240.0,-3162.0,-1629.0,Z
2.27,1.77,1.73,3.25,2.98,10376.0,10944.0,1004.0,-5467.0,-2968.0,-1555.0,Z
2.27,1.7399999999999998,1.78,3.2199999999999998,3.03,10880.0,11288.0,856.0,-6141.0,-4011.0,-1690.0,Z
2.25,1.69,1.8000000000000003,3.25,3.03,10932.0,11696.0,2244.0,-5901.0,-2256.0,-1319.0,Z
2.31,1.69,1.81,3.2,3.03,11416.0,12400.0,1864.0,-6839.0,-3823.0,-1334.0,Z
2.3,1.7000000000000002,1.78,3.26,3.03,11356.0,12888.0,1916.0,-6783.0,-2511.0,-840.0,Z
2.27,1.77,1.8000000000000003,3.2300000000000004,3.0,11576.0,12464.0,2132.0,-7810.0,-3976.0,-1098.0,Z
2.28,1.79,1.72,3.2400000000000007,2.86,11516.0,12348.0,1824.0,-7747.0,-3118.0,-1207.0,Z
2.3,1.8000000000000003,1.79,3.2199999999999998,3.02,11376.0,12528.0,2376.0,-7851.0,-3119.0,-1633.0,Z
2.27,1.7000000000000002,1.7399999999999998,3.2400000000000007,3.01,11640.0,12260.0,2172.0,-8259.0,-4275.0,-2111.0,Z
2.31,1.77,1.7500000000000002,3.2199999999999998,3.01,11044.0,12852.0,2768.0,-7777.0,-2927.0,-2011.0,Z
2.25,1.8000000000000003,1.81,3.2199999999999998,3.02,11376.0,12896.0,3448.0,-8466.0,-4835.0,-2375.0,Z
2.26,1.77,1.8000000000000003,3.25,3.01,11264.0,13196.0,4064.0,-8071.0,-4056.0,-2019.0,Z
2.27,1.8000000000000003,1.7500000000000002,3.2099999999999995,3.01,11324.0,12904.0,3956.0,-8355.0,-5047.0,-2107.0,Z
2.27,1.8000000000000003,1.81,3.2300000000000004,3.02,11128.0,12844.0,4088.0,-7596.0,-3879.0,-1825.0,Z
2.29,1.77,1.8000000000000003,3.2199999999999998,2.99,10680.0,13080.0,4376.0,-7414.0,-4408.0,-2187.0,Z
2.31,1.79,1.77,3.2099999999999995,2.96,10276.0,13196.0,4596.0,-7051.0,-3976.0,-2526.0,Z
2.29,1.79,1.79,3.25,2.97,10260.0,13196.0,4728.0,-6961.0,-4343.0,-2808.0,Z
2.28,1.7500000000000002,1.8000000000000003,3.2099999999999995,3.03,10376.0,13468.0,5196.0,-6828.0,-4149.0,-2876.0,Z
2.34,1.8000000000000003,1.77,3.2400000000000007,3.01,10472.0,13440.0,5680.0,-6904.0,-4401.0,-2881.0,Z
2.28,1.7000000000000002,1.81,3.19,2.85,10360.0,13408.0,5820.0,-6872.0,-4040.0,-2714.0,Z
2.28,1.8000000000000003,1.8000000000000003,3.2400000000000007,3.03,10052.0,13280.0,5760.0,-6572.0,-3819.0,-2583.0,Z
2.3,1.79,1.8000000000000003,3.2400000000000007,3.0,9624.0,13124.0,5712.0,-6240.0,-4135.0,-2547.0,Z
2.31,1.8000000000000003,1.7500000000000002,3.25,2.98,9020.0,12884.0,5496.0,-5671.0,-3827.0,-2762.0,Z
2.3,1.79,1.76,3.2400000000000007,3.02,9188.0,13032.0,5760.0,-5119.0,-3382.0,-3022.0,Z
2.27,1.8000000000000003,1.73,3.2400000000000007,3.03,9136.0,13264.0,5860.0,-4628.0,-3087.0,-3144.0,Z
2.26,1.77,1.8000000000000003,3.2400000000000007,2.93,9080.0,13224.0,6260.0,-4766.0,-3744.0,-3115.0,Z
2.24,1.8000000000000003,1.8000000000000003,3.25,2.99,9156.0,13424.0,6552.0,-4643.0,-3673.0,-2829.0,Z
2.3,1.8399999999999999,1.7399999999999998,3.08,3.03,9112.0,13548.0,6700.0,-4460.0,-3486.0,-2494.0,Z
2.3,1.79,1.78,3.17,3.0,8800.0,13248.0,6600.0,-4233.0,-3304.0,-2406.0,Z
2.3,1.8000000000000003,1.77,3.26,3.03,8528.0,13340.0,6696.0,-3651.0,-2329.0,-2280.0,Z
2.24,1.71,1.79,3.2400000000000007,3.02,8268.0,13432.0,6336.0,-3419.0,-2597.0,-2530.0,Z
2.28,1.8000000000000003,1.8000000000000003,3.2400000000000007,3.02,8336.0,13128.0,6576.0,-3169.0,-2290.0,-2524.0,Z
2.29,1.71,1.79,3.25,3.01,8320.0,13152.0,6532.0,-2819.0,-1924.0,-2468.0,Z
2.26,1.79,1.8000000000000003,3.3000000000000003,3.02,8248.0,13380.0,6708.0,-2460.0,-1319.0,-2152.0,Z
2.29,1.7399999999999998,1.78,3.25,3.02,8200.0,13516.0,6744.0,-2328.0,-1703.0,-1971.0,Z
2.27,1.8000000000000003,1.77,3.09,3.0,8384.0,13488.0,6752.0,-2176.0,-1728.0,-1763.0,Z
2.26,1.7399999999999998,1.8000000000000003,3.2099999999999995,3.03,8180.0,13412.0,6432.0,-1879.0,-1218.0,-1554.0,Z
2.29,1.8000000000000003,1.76,3.2300000000000004,3.02,8088.0,13408.0,6504.0,-1639.0,-773.0,-1588.0,Z
2.3,1.7500000000000002,1.77,3.2400000000000007,2.96,8544.0,13024.0,6404.0,-1699.0,-1202.0,-1690.0,Z
2.25,1.78,1.79,3.2099999999999995,3.01,8012.0,13344.0,6152.0,-777.0,509.0,-1183.0,Z
2.27,1.79,1.81,3.16,3.01,8236.0,13244.0,6224.0,-1155.0,-1263.0,-1272.0,Z
2.28,1.79,1.77,3.2300000000000004,3.0,8280.0,13404.0,6356.0,-738.0,-447.0,-855.0,Z
2.27,1.79,1.81,3.07,3.01,8196.0,13372.0,6440.0,-887.0,-744.0,-639.0,Z
2.28,1.79,1.7399999999999998,3.25,2.95,8256.0,13352.0,6244.0,-843.0,-623.0,-460.0,Z
2.29,1.76,1.78,3.2300000000000004,2.89,8172.0,13236.0,5948.0,-695.0,-640.0,-390.0,Z
2.3,1.73,1.8000000000000003,3.2199999999999998,2.96,8288.0,13188.0,5976.0,-412.0,-94.0,-504.0,Z
2.3,1.77,1.79,3.25,2.97,8680.0,13212.0,5776.0,-138.0,465.0,-595.0,Z
2.27,1.7500000000000002,1.8000000000000003,3.2099999999999995,3.01,8752.0,13304.0,6016.0,53.0,735.0,-535.0,Z
2.3,1.7500000000000002,1.8000000000000003,3.2099999999999995,3.0,8840.0,13352.0,5760.0,-63.0,589.0,-464.0,Z
2.28,1.79,1.78,3.2400000000000007,3.02,8636.0,13520.0,5608.0,-140.0,196.0,-220.0,Z
2.28,1.78,1.7399999999999998,3.2099999999999995,2.99,8652.0,13380.0,5736.0,-261.0,-101.0,-134.0,Z
2.33,1.8000000000000003,1.78,3.07,3.02,8808.0,13264.0,5552.0,-151.0,-12.0,-48.0,Z
2.28,1.77,1.8000000000000003,3.2,3.0,8796.0,13296.0,5508.0,-79.0,132.0,13.0,Z
2.27,1.8000000000000003,1.71,3.2300000000000004,3.01,9000.0,13256.0,5348.0,-56.0,258.0,-1.0,Z
2.3,1.79,1.78,3.25,3.0,8920.0,13388.0,5464.0,111.0,596.0,76.0,Z
2.33,1.8000000000000003,1.78,3.2199999999999998,2.97,8804.0,13340.0,5280.0,122.0,514.0,46.0,Z
2.28,1.77,1.78,3.2400000000000007,3.0,8776.0,13348.0,5156.0,20.0,254.0,91.0,Z
2.27,1.79,1.8000000000000003,3.19,3.01,9004.0,13488.0,5252.0,55.0,306.0,168.0,Z
2.3,1.71,1.77,3.2300000000000004,2.99,8912.0,13372.0,5320.0,-16.0,101.0,230.0,Z
2.27,1.77,1.77,3.25,2.98,9200.0,13372.0,5296.0,103.0,316.0,349.0,Z
2.28,1.82,1.78,3.2300000000000004,2.99,9088.0,13440.0,5288.0,14.0,199.0,327.0,Z
2.28,1.77,1.81,3.19,2.82,9016.0,13324.0,5272.0,-7.0,165.0,281.0,Z
2.23,1.77,1.8000000000000003,3.25,3.02,9084.0,13432.0,5184.0,32.0,244.0,203.0,Z
2.2,1.77,1.78,3.2199999999999998,2.96,8912.0,13280.0,5152.0,42.0,275.0,117.0,Z
2.27,1.8000000000000003,1.78,3.2400000000000007,3.02,9268.0,13208.0,5112.0,53.0,251.0,77.0,Z
2.24,1.78,1.73,3.2300000000000004,2.95,9184.0,13292.0,5072.0,71.0,372.0,120.0,Z
2.3,1.77,1.71,3.2400000000000007,3.0,9228.0,13276.0,5188.0,34.0,398.0,159.0,Z
2.28,1.8000000000000003,1.77,3.2400000000000007,2.99,9232.0,13268.0,5060.0,25.0,375.0,193.0,Z
2.27,1.79,1.8000000000000003,3.2199999999999998,3.02,9228.0,13296.0,5172.0,22.0,511.0,220.0,Z
2.26,1.7000000000000002,1.77,3.2300000000000004,3.0,8984.0,13420.0,5176.0,15.0,662.0,236.0,Z
2.26,1.76,1.7500000000000002,3.2300000000000004,3.02,9132.0,13264.0,5296.0,-26.0,567.0,147.0,Z
2.3,1.72,1.8000000000000003,3.25,3.02,9188.0,13312.0,5216.0,-17.0,538.0,71.0,Z
2.24,1.8000000000000003,1.8000000000000003,3.19,2.99,9144.0,13256.0,5276.0,87.0,666.0,9.0,Z
2.26,1.8000000000000003,1.77,3.2099999999999995,3.01,9188.0,13348.0,5212.0,50.0,317.0,-49.0,Z
2.28,1.77,1.79,3.2400000000000007,2.96,9240.0,13328.0,5164.0,40.0,188.0,-40.0,Z
2.28,1.8000000000000003,1.77,3.25,3.02,9220.0,13312.0,5088.0,-32.0,-45.0,-115.0,Z
2.28,1.79,1.79,3.2400000000000007,2.96,9256.0,13188.0,5096.0,-86.0,-121.0,-165.0,Z
2.29,1.7000000000000002,1.71,3.2400000000000007,3.01,9204.0,13264.0,5164.0,-39.0,-97.0,-191.0,Z
2.3,1.8000000000000003,1.78,3.25,3.0,9120.0,13352.0,5172.0,-148.0,-296.0,-311.0,Z
2.28,1.79,1.78,3.2300000000000004,2.99,9276.0,13280.0,5268.0,-65.0,-96.0,-355.0,Z
2.3,1.79,1.8000000000000003,3.25,2.96,9416.0,13268.0,5376.0,-67.0,68.0,-362.0,Z
2.28,1.78,1.78,3.2300000000000004,3.01,9308.0,13180.0,5272.0,-61.0,197.0,-338.0,Z
2.29,1.79,1.81,3.2400000000000007,3.02,9268.0,13112.0,5332.0,7.0,433.0,-245.0,Z
2.28,1.79,1.8000000000000003,3.19,2.95,9260.0,13072.0,5252.0,-36.0,396.0,-218.0,Z
2.3,1.79,1.8000000000000003,3.2400000000000007,2.97,9028.0,13136.0,4972.0,-12.0,526.0,-167.0,Z
2.25,1.79,1.81,3.2,3.01,8916.0,13164.0,5056.0,4.0,513.0,-172.0,Z
2.28,1.78,1.77,3.2400000000000007,2.88,9072.0,13308.0,5136.0,-26.0,375.0,-231.0,Z
2.3,1.7500000000000002,1.81,3.2300000000000004,3.02,9096.0,13256.0,5108.0,19.0,498.0,-212.0,Z
2.3,1.7500000000000002,1.77,3.2300000000000004,2.97,8980.0,13232.0,5220.0,111.0,698.0,-237.0,Z
2.28,1.78,1.77,3.2199999999999998,3.02,8912.0,13168.0,5000.0,122.0,465.0,-337.0,Z
2.27,1.77,1.71,3.2300000000000004,3.01,9072.0,13132.0,5008.0,157.0,267.0,-264.0,Z
2.28,1.69,1.7000000000000002,3.26,2.97,7920.0,13940.0,328.0,-451.0,-335.0,-168.0,Z
2.28,1.77,1.76,3.3000000000000003,3.0,8016.0,14128.0,180.0,-497.0,-442.0,-120.0,Z
2.25,1.8000000000000003,1.77,3.25,3.0,7972.0,14164.0,92.0,-558.0,-393.0,-72.0,Z
2.27,1.8000000000000003,1.8000000000000003,3.2400000000000007,3.03,7952.0,14080.0,240.0,-582.0,-318.0,-95.0,Z
2.32,1.79,1.78,3.2199999999999998,2.99,8128.0,13956.0,-36.0,-569.0,-146.0,-95.0,Z
2.28,1.8000000000000003,1.76,3.2099999999999995,3.0,7940.0,13844.0,-8.0,-516.0,30.0,-97.0,Z
2.3,1.77,1.78,3.25,3.03,7840.0,13908.0,-152.0,-409.0,304.0,-36.0,Z
2.28,1.77,1.73,3.27,3.03,7836.0,14004.0,-340.0,-598.0,-360.0,-150.0,Z
2.33,1.79,1.72,3.26,3.02,8064.0,13896.0,-220.0,-698.0,-468.0,-102.0,Z
2.29,1.76,1.78,3.07,2.83,8156.0,13896.0,-252.0,-895.0,-821.0,-101.0,Z
2.25,1.8000000000000003,1.71,3.2300000000000004,3.02,8488.0,13688.0,-672.0,-1032.0,-766.0,-99.0,Z
2.28,1.7399999999999998,1.7000000000000002,3.27,3.02,9112.0,13604.0,-996.0,-1286.0,-581.0,-188.0,Z
2.3,1.8000000000000003,1.76,3.27,3.02,9548.0,13388.0,-1404.0,-1642.0,-176.0,-487.0,Z
2.25,1.78,1.79,3.2300000000000004,3.02,9896.0,13272.0,-1704.0,-1811.0,1019.0,-798.0,Z
2.3,1.79,1.78,3.26,3.03,9996.0,13092.0,-1968.0,-2074.0,1663.0,-1260.0,Z
2.3,1.8000000000000003,1.77,3.2400000000000007,3.03,9976.0,12624.0,-2056.0,-2398.0,1761.0,-1566.0,Z
2.31,1.79,1.76,3.26,3.03,9672.0,12520.0,-2180.0,-2705.0,1420.0,-1680.0,Z
2.3,1.8000000000000003,1.79,3.2099999999999995,3.0,9260.0,12476.0,-2252.0,-3341.0,-23.0,-1868.0,Z
2.28,1.81,1.7399999999999998,3.26,3.0,9364.0,13160.0,-2344.0,-4003.0,-1252.0,-1925.0,Z
2.3,1.71,1.79,3.08,3.02,9436.0,13744.0,-1744.0,-4635.0,-1480.0,-1939.0,Z
2.28,1.78,1.77,3.25,3.0,9356.0,14012.0,-1604.0,-5418.0,-2325.0,-2270.0,Z
2.31,1.83,1.71,3.27,3.01,9332.0,13756.0,-1168.0,-6023.0,-2853.0,-2303.0,Z
2.3,1.8000000000000003,1.76,3.26,3.04,9096.0,13760.0,-772.0,-6390.0,-3262.0,-2317.0,Z
2.27,1.71,1.76,3.27,3.02,8980.0,13540.0,-676.0,-6475.0,-3531.0,-2591.0,Z
2.27,1.79,1.79,3.25,3.03,8640.0,13556.0,-304.0,-6097.0,-3120.0,-2514.0,Z
2.27,1.8399999999999999,1.78,3.26,3.01,8268.0,13800.0,-36.0,-6494.0,-5004.0,-2553.0,Z
2.29,1.7399999999999998,1.78,3.26,2.98,8444.0,14248.0,748.0,-6857.0,-6113.0,-2311.0,Z
2.37,1.8000000000000003,1.7399999999999998,3.08,2.99,8884.0,14596.0,1008.0,-7275.0,-6688.0,-2160.0,Z
2.27,1.72,1.79,3.26,3.03,8884.0,14624.0,1456.0,-7422.0,-6677.0,-2052.0,Z
2.27,1.8000000000000003,1.7399999999999998,3.2300000000000004,3.02,8800.0,14400.0,1972.0,-7275.0,-5664.0,-2148.0,Z
2.29,1.79,1.77,3.26,3.0,8408.0,14280.0,2060.0,-7403.0,-5577.0,-2385.0,Z
2.31,1.71,1.7399999999999998,3.26,3.03,7776.0,14424.0,2060.0,-6966.0,-4594.0,-2575.0,Z
2.3,1.8000000000000003,1.7000000000000002,3.29,2.99,7308.0,14424.0,2200.0,-7066.0,-5276.0,-2958.0,Z
2.29,1.8000000000000003,1.73,3.26,3.03,7304.0,14660.0,2412.0,-7106.0,-6257.0,-3265.0,Z
2.28,1.79,1.73,3.26,3.04,7344.0,14612.0,3180.0,-7173.0,-6835.0,-3374.0,Z
2.27,1.8000000000000003,1.79,3.25,3.02,7092.0,14864.0,3756.0,-6997.0,-6553.0,-3282.0,Z
2.28,1.72,1.78,3.27,3.03,7012.0,14724.0,4052.0,-7150.0,-7385.0,-3401.0,Z
2.3,1.79,1.78,3.1300000000000003,3.03,6604.0,14800.0,4320.0,-6644.0,-6310.0,-3231.0,Z
2.3,1.77,1.78,3.2799999999999994,3.02,6292.0,14860.0,4512.0,-6704.0,-6791.0,-3429.0,Z
2.28,1.77,1.79,3.2400000000000007,2.9,5712.0,15116.0,4772.0,-6002.0,-4981.0,-3083.0,Z
2.27,1.77,1.76,3.29,3.03,5408.0,15372.0,4972.0,-6512.0,-6532.0,-3535.0,Z
2.3,1.77,1.78,3.26,2.99,5480.0,15192.0,5376.0,-6073.0,-5668.0,-3447.0,Z
2.3,1.8000000000000003,1.7000000000000002,3.26,3.0,5320.0,15272.0,5632.0,-5663.0,-4978.0,-3349.0,Z
2.26,1.77,1.7399999999999998,3.26,3.03,4976.0,15248.0,5752.0,-5206.0,-4269.0,-3213.0,Z
2.27,1.79,1.71,3.25,3.03,4512.0,15208.0,5864.0,-4739.0,-3957.0,-3078.0,Z
2.29,1.8000000000000003,1.7399999999999998,3.2400000000000007,2.88,4136.0,15168.0,5944.0,-4368.0,-3624.0,-2997.0,Z
2.32,1.76,1.79,3.29,3.03,4288.0,15336.0,6436.0,-3993.0,-3529.0,-2866.0,Z
2.28,1.77,1.79,3.2799999999999994,3.03,3920.0,15100.0,6640.0,-3421.0,-2353.0,-2608.0,Z
2.28,1.8000000000000003,1.69,3.2199999999999998,3.03,3828.0,15104.0,6412.0,-3257.0,-2976.0,-2455.0,Z
2.28,1.77,1.79,3.26,3.01,3640.0,14880.0,6712.0,-2549.0,-2151.0,-2134.0,Z
2.28,1.79,1.78,3.29,2.99,3456.0,14636.0,6568.0,-2110.0,-1841.0,-1882.0,Z
2.28,1.79,1.79,3.27,2.99,3416.0,14912.0,6476.0,-1500.0,-1111.0,-1608.0,Z
2.3,1.79,1.79,3.25,3.05,3272.0,14836.0,6648.0,-1146.0,-1030.0,-1336.0,Z
2.27,1.7500000000000002,1.7500000000000002,3.29,3.01,3324.0,14736.0,6588.0,-779.0,-680.0,-1013.0,Z
2.3,1.77,1.7000000000000002,3.18,2.93,2968.0,14740.0,6328.0,-350.0,-301.0,-662.0,Z
2.26,1.78,1.78,3.25,2.83,2772.0,14656.0,6140.0,118.0,-33.0,-304.0,Z
2.28,1.72,1.78,3.2400000000000007,3.03,2940.0,14532.0,5920.0,318.0,-470.0,-136.0,Z
2.28,1.77,1.79,3.27,3.04,3292.0,14524.0,5844.0,660.0,-106.0,175.0,Z
2.3,1.78,1.78,3.2400000000000007,3.01,3572.0,14484.0,5436.0,787.0,391.0,412.0,Z
2.29,1.78,1.7500000000000002,3.2799999999999994,3.03,3888.0,14604.0,5252.0,1066.0,1088.0,748.0,Z
2.28,1.79,1.78,3.2400000000000007,3.03,3836.0,14672.0,4988.0,1267.0,1687.0,952.0,Z
2.3,1.77,1.79,3.2300000000000004,2.98,3972.0,14668.0,4664.0,1311.0,1654.0,1102.0,Z
2.3,1.8000000000000003,1.73,3.26,3.03,4236.0,14608.0,4252.0,1563.0,2328.0,1394.0,Z
2.26,1.72,1.79,3.2199999999999998,2.82,4332.0,14692.0,3892.0,1578.0,2143.0,1574.0,Z
2.27,1.8000000000000003,1.76,3.26,3.03,4364.0,14724.0,3644.0,1739.0,2328.0,1744.0,Z
2.29,1.8000000000000003,1.79,3.08,2.95,4668.0,14712.0,3488.0,1717.0,2290.0,1871.0,Z
2.28,1.8000000000000003,1.72,3.25,3.03,4868.0,14660.0,3656.0,1714.0,2634.0,2126.0,Z
2.26,1.77,1.78,3.29,3.0,5124.0,14532.0,3560.0,1605.0,2670.0,2322.0,Z
2.3,1.8000000000000003,1.7000000000000002,3.26,3.03,5352.0,14412.0,4048.0,1549.0,3005.0,2603.0,Z
2.3,1.8000000000000003,1.7000000000000002,3.2799999999999994,2.99,5168.0,14324.0,3752.0,1475.0,3012.0,2863.0,Z
2.27,1.81,1.7399999999999998,3.26,3.03,4992.0,14184.0,3832.0,1195.0,1988.0,3013.0,Z
2.28,1.81,1.73,3.27,3.03,5140.0,14088.0,4008.0,1238.0,1718.0,3200.0,Z
2.25,1.73,1.79,3.2400000000000007,3.03,5400.0,13872.0,4340.0,1302.0,1659.0,3354.0,Z
2.3,1.81,1.7399999999999998,3.26,3.0,5596.0,13860.0,4116.0,1489.0,2030.0,3499.0,Z
2.3,1.78,1.7399999999999998,3.25,3.02,5648.0,13644.0,4204.0,1482.0,1918.0,3666.0,Z
2.27,1.79,1.77,3.26,3.03,5916.0,13484.0,4184.0,1520.0,2026.0,3831.0,Z
2.26,1.7500000000000002,1.78,3.2400000000000007,3.02,5788.0,13284.0,4316.0,1678.0,2460.0,4115.0,Z
2.28,1.81,1.79,3.05,3.02,5756.0,13380.0,4556.0,1685.0,2660.0,4318.0,Z
2.28,1.81,1.69,3.2400000000000007,3.01,5576.0,13076.0,4296.0,1771.0,2772.0,4588.0,Z
2.31,1.79,1.8000000000000003,3.17,3.03,5556.0,13044.0,3936.0,1615.0,1902.0,4767.0,Z
2.29,1.78,1.76,3.2799999999999994,3.02,5732.0,12820.0,3608.0,1474.0,522.0,4918.0,Z
2.2,1.8000000000000003,1.77,3.26,3.04,5984.0,12784.0,3564.0,1377.0,-791.0,4916.0,Z
2.29,1.73,1.79,3.25,3.03,6548.0,12664.0,3516.0,1107.0,-1892.0,4550.0,Z
2.28,1.81,1.76,3.26,2.97,7488.0,12660.0,3460.0,1170.0,-1923.0,4150.0,Z
2.28,1.78,1.8000000000000003,3.26,3.03,8100.0,13176.0,3436.0,1162.0,-1197.0,3954.0,Z
2.31,1.8000000000000003,1.7399999999999998,3.2799999999999994,3.02,8508.0,13360.0,3708.0,1569.0,225.0,3853.0,Z
2.27,1.76,1.79,3.25,3.02,8580.0,13640.0,3232.0,1678.0,921.0,3835.0,Z
2.27,1.78,1.77,3.25,3.02,8788.0,13604.0,2468.0,1863.0,550.0,3530.0,Z
2.3,1.81,1.76,3.2199999999999998,2.99,8692.0,13640.0,2304.0,2012.0,848.0,3459.0,Z
2.26,1.8000000000000003,1.7500000000000002,3.2199999999999998,2.98,8980.0,13928.0,2132.0,1800.0,1089.0,3162.0,Z
2.33,1.8000000000000003,1.79,3.29,2.96,9380.0,14064.0,2248.0,1459.0,1432.0,2690.0,Z
2.31,1.7399999999999998,1.7399999999999998,3.2099999999999995,3.03,9428.0,14304.0,2340.0,1337.0,2548.0,2761.0,Z
2.31,1.78,1.76,3.26,2.98,9980.0,14608.0,2612.0,641.0,2201.0,2657.0,Z
2.28,1.72,1.77,3.25,3.02,9732.0,14964.0,2832.0,541.0,2543.0,2843.0,Z
2.28,1.7500000000000002,1.8000000000000003,3.2199999999999998,3.02,9220.0,15120.0,2544.0,489.0,2624.0,2895.0,Z
2.25,1.78,1.8000000000000003,3.27,3.02,9368.0,14924.0,2928.0,794.0,2718.0,2893.0,Z
2.28,1.7500000000000002,1.81,3.18,2.96,9068.0,14752.0,3672.0,1442.0,3681.0,3228.0,Z
2.39,1.8000000000000003,1.77,3.27,3.02,8716.0,14564.0,4480.0,1903.0,4870.0,3560.0,Z
2.24,1.81,1.76,3.25,3.03,9368.0,13992.0,4600.0,2181.0,5859.0,3751.0,Z
2.3,1.77,1.81,3.25,3.03,10904.0,13044.0,4176.0,2665.0,7298.0,4585.0,Z
2.28,1.79,1.79,3.26,2.97,11460.0,12772.0,3584.0,3436.0,8007.0,5817.0,Z
2.28,1.72,1.79,3.2199999999999998,3.0,10560.0,13528.0,3200.0,4522.0,9804.0,6731.0,Z
2.3,1.81,1.7399999999999998,3.25,3.02,9940.0,13864.0,2360.0,4039.0,7608.0,6160.0,Z
2.28,1.7399999999999998,1.77,3.26,3.03,9456.0,13664.0,3020.0,4706.0,8689.0,5896.0,Z
2.29,1.81,1.78,3.2400000000000007,3.02,9492.0,13908.0,2572.0,4720.0,7878.0,5309.0,Z
2.31,1.78,1.71,3.26,3.02,10528.0,12916.0,2900.0,4714.0,6742.0,5052.0,Z
2.28,1.81,1.77,3.2400000000000007,3.03,11544.0,13164.0,2132.0,4799.0,6045.0,5277.0,Z
2.28,1.8000000000000003,1.8000000000000003,3.2199999999999998,3.01,12004.0,13020.0,2372.0,4608.0,4801.0,5558.0,Z
2.3,1.79,1.8000000000000003,3.25,2.97,11688.0,13412.0,2116.0,4714.0,5568.0,5796.0,Z
2.28,1.81,1.73,3.2400000000000007,3.03,11652.0,13548.0,1836.0,3856.0,4139.0,5323.0,Z
2.26,1.82,1.7500000000000002,3.3000000000000003,3.01,11496.0,13308.0,1300.0,3939.0,5529.0,5147.0,Z
2.32,1.78,1.8000000000000003,3.2400000000000007,3.01,11544.0,13156.0,332.0,3564.0,4860.0,4631.0,Z
2.29,1.77,1.8000000000000003,3.27,3.02,11816.0,13072.0,524.0,3194.0,3955.0,3938.0,Z
2.3,1.81,1.71,3.29,2.99,12228.0,13260.0,372.0,3048.0,3737.0,3349.0,Z
2.31,1.72,1.76,3.2799999999999994,3.03,12536.0,13300.0,432.0,2477.0,2968.0,2955.0,Z
2.31,1.82,1.79,3.27,3.03,12496.0,13492.0,856.0,2025.0,3181.0,2761.0,Z
2.27,1.78,1.77,3.26,2.97,12140.0,13400.0,840.0,1257.0,2492.0,2531.0,Z
2.27,1.8500000000000003,1.8000000000000003,3.26,3.03,12080.0,12896.0,936.0,834.0,1603.0,2332.0,Z
2.27,1.8000000000000003,1.7399999999999998,3.29,2.98,11816.0,12700.0,996.0,729.0,1247.0,2193.0,Z
2.31,1.7500000000000002,1.79,3.2799999999999994,3.02,12388.0,12268.0,1016.0,774.0,1289.0,2001.0,Z
2.29,1.79,1.8000000000000003,3.2400000000000007,3.02,12516.0,12344.0,1756.0,1067.0,2120.0,1950.0,Z
2.29,1.76,1.81,3.2199999999999998,2.99,12604.0,12436.0,1864.0,971.0,2570.0,1728.0,Z
2.29,1.81,1.72,3.26,3.03,12480.0,12560.0,2200.0,735.0,2610.0,1441.0,Z
2.29,1.77,1.77,3.2799999999999994,3.02,12760.0,12312.0,2120.0,392.0,2200.0,1108.0,Z
2.25,1.81,1.71,3.2300000000000004,3.03,12512.0,12228.0,1752.0,485.0,2504.0,990.0,Z
2.26,1.82,1.81,3.2400000000000007,2.92,12548.0,12160.0,1172.0,80.0,1193.0,585.0,Z
2.31,1.77,1.8000000000000003,3.25,3.02,12696.0,12184.0,880.0,274.0,1447.0,291.0,Z
2.26,1.81,1.77,3.27,3.02,12876.0,12140.0,932.0,23.0,801.0,-259.0,Z
2.31,1.81,1.77,3.2,3.02,13160.0,12168.0,600.0,-360.0,571.0,-715.0,Z
2.32,1.77,1.8000000000000003,3.2799999999999994,3.04,13284.0,12136.0,520.0,-620.0,420.0,-1112.0,Z
2.29,1.76,1.8000000000000003,3.29,3.01,13296.0,12000.0,596.0,-995.0,-101.0,-1447.0,Z
2.28,1.7500000000000002,1.79,3.26,3.03,12816.0,12172.0,744.0,-1427.0,-423.0,-1664.0,Z
2.29,1.82,1.73,3.2199999999999998,3.03,12784.0,12196.0,684.0,-2148.0,-1704.0,-2080.0,Z
2.28,1.82,1.71,3.29,2.98,12740.0,11704.0,500.0,-2521.0,-1942.0,-2318.0,Z
2.28,1.73,1.8000000000000003,3.27,3.02,12568.0,11452.0,772.0,-2936.0,-2070.0,-2565.0,Z
2.25,1.79,1.76,3.27,2.97,12480.0,11288.0,712.0,-3316.0,-1714.0,-2829.0,Z
2.29,1.78,1.8000000000000003,3.26,3.02,12624.0,10880.0,920.0,-3853.0,-2453.0,-3023.0,Z
2.31,1.79,1.8000000000000003,3.25,3.03,12856.0,10772.0,1416.0,-4267.0,-2246.0,-2935.0,Z
2.25,1.8000000000000003,1.81,3.2199999999999998,3.0,12684.0,10864.0,1224.0,-4920.0,-2193.0,-2939.0,Z
2.31,1.79,1.8399999999999999,3.2099999999999995,3.02,12648.0,10608.0,1628.0,-5172.0,-1441.0,-2953.0,Z
2.26,1.79,1.79,3.2799999999999994,3.02,11656.0,10884.0,1212.0,-5212.0,-1238.0,-2907.0,Z
2.29,1.81,1.79,3.2199999999999998,3.0,11576.0,10760.0,1940.0,-5702.0,-2921.0,-3085.0,Z
2.28,1.78,1.79,3.26,3.02,11556.0,10892.0,2012.0,-5711.0,-3155.0,-2866.0,Z
2.31,1.81,1.7500000000000002,3.25,2.84,11572.0,10976.0,1980.0,-5800.0,-3639.0,-2778.0,Z
2.28,1.8000000000000003,1.81,3.2099999999999995,2.85,11708.0,10852.0,2292.0,-5782.0,-4023.0,-2585.0,Z
2.28,1.72,1.77,3.2799999999999994,3.03,11948.0,11452.0,3520.0,-5242.0,-2770.0,-2225.0,Z
2.27,1.82,1.78,3.25,3.01,11152.0,12104.0,3272.0,-6008.0,-3813.0,-2325.0,Z
2.27,1.78,1.81,3.27,3.03,11204.0,12100.0,3764.0,-6226.0,-3326.0,-2315.0,Z
2.29,1.82,1.78,3.2400000000000007,3.03,11420.0,12280.0,3944.0,-6571.0,-4100.0,-2503.0,Z
2.3,1.82,1.77,3.27,3.02,10932.0,12388.0,4084.0,-6509.0,-3880.0,-2155.0,Z
2.31,1.82,1.7399999999999998,3.12,3.03,10504.0,12592.0,3852.0,-6906.0,-5266.0,-2276.0,Z
2.29,1.76,1.81,3.2400000000000007,2.98,10388.0,12612.0,4180.0,-6812.0,-5523.0,-2222.0,Z
2.28,1.81,1.86,3.25,3.03,10348.0,12736.0,4200.0,-6454.0,-5337.0,-2010.0,Z
2.31,1.76,1.82,3.2400000000000007,3.03,10012.0,12944.0,4796.0,-6493.0,-6105.0,-2047.0,Z
2.27,1.81,1.8000000000000003,3.3000000000000003,3.03,9756.0,13256.0,4600.0,-6040.0,-4819.0,-2133.0,Z
2.27,1.76,1.81,3.2099999999999995,3.02,10040.0,13576.0,5636.0,-6289.0,-5377.0,-2419.0,Z
2.27,1.8000000000000003,1.81,3.2300000000000004,3.04,9748.0,13964.0,5500.0,-6008.0,-4171.0,-2423.0,Z
2.27,1.78,1.8000000000000003,3.2300000000000004,3.04,9116.0,14212.0,5212.0,-6176.0,-4621.0,-2581.0,Z
2.25,1.8000000000000003,1.8000000000000003,3.27,3.02,9244.0,13664.0,5468.0,-6106.0,-4731.0,-2550.0,Z
2.3,1.72,1.81,3.2799999999999994,2.98,9056.0,13508.0,5256.0,-5652.0,-4237.0,-2397.0,Z
2.28,1.82,1.81,3.26,3.03,8824.0,13432.0,5444.0,-5275.0,-3827.0,-2291.0,Z
2.29,1.77,1.8000000000000003,3.27,3.03,8824.0,13372.0,5416.0,-5084.0,-3932.0,-2319.0,Z
2.31,1.79,1.76,3.09,2.98,9028.0,13200.0,5532.0,-4838.0,-3998.0,-2377.0,Z
2.23,1.79,1.7500000000000002,3.2099999999999995,3.04,8932.0,13188.0,5884.0,-4288.0,-3486.0,-2184.0,Z
2.39,1.81,1.7399999999999998,3.25,3.03,8788.0,13072.0,6120.0,-4077.0,-3473.0,-2247.0,Z
2.3,1.79,1.81,3.2099999999999995,3.01,8708.0,13336.0,6036.0,-3717.0,-3036.0,-2194.0,Z
2.24,1.77,1.8000000000000003,3.26,3.02,8848.0,13360.0,5936.0,-3626.0,-3306.0,-2262.0,Z
2.27,1.79,1.8000000000000003,3.27,3.04,8904.0,13176.0,5748.0,-3422.0,-3241.0,-2198.0,Z
2.27,1.81,1.7500000000000002,3.26,3.04,8912.0,13216.0,5728.0,-3098.0,-2852.0,-2067.0,Z
2.27,1.82,1.78,3.25,3.02,8848.0,13060.0,5584.0,-2955.0,-3064.0,-2006.0,Z
2.3,1.81,1.78,3.25,3.03,8780.0,13056.0,5592.0,-2582.0,-2672.0,-1770.0,Z
2.22,1.81,1.77,3.25,3.02,9000.0,13152.0,5848.0,-2474.0,-2936.0,-1626.0,Z
2.28,1.7500000000000002,1.82,3.27,3.03,9056.0,13104.0,5836.0,-2222.0,-2655.0,-1312.0,Z
2.3,1.8000000000000003,1.8000000000000003,3.2300000000000004,3.02,8860.0,13320.0,5768.0,-1982.0,-2206.0,-952.0,Z
2.29,1.8000000000000003,1.73,3.25,3.03,9048.0,13332.0,5480.0,-2286.0,-2952.0,-1085.0,Z
2.28,1.81,1.72,3.25,3.03,9084.0,13176.0,5612.0,-1747.0,-1578.0,-909.0,Z
2.36,1.81,1.82,3.2300000000000004,3.02,9132.0,13172.0,5912.0,-1778.0,-1488.0,-912.0,Z
2.11,1.79,1.82,3.2,3.03,8980.0,13152.0,6064.0,-1675.0,-1290.0,-808.0,Z
2.3,1.81,1.78,3.2400000000000007,3.02,9148.0,13012.0,5772.0,-1674.0,-1772.0,-812.0,Z
2.27,1.76,1.81,3.27,2.9,9140.0,12972.0,5684.0,-1245.0,-1347.0,-521.0,Z
2.24,1.8000000000000003,1.82,3.27,2.98,8740.0,13152.0,5632.0,-1048.0,-1660.0,-356.0,Z
2.28,1.78,1.8000000000000003,3.26,2.99,8476.0,13344.0,5892.0,-882.0,-1813.0,-582.0,Z
2.27,1.81,1.77,3.25,2.97,8756.0,13404.0,5732.0,-1044.0,-2142.0,-1027.0,Z
2.28,1.8000000000000003,1.78,3.25,3.02,9476.0,12912.0,5756.0,-1061.0,-2092.0,-1204.0,Z
2.23,1.82,1.81,3.2199999999999998,3.03,9708.0,13252.0,5308.0,-673.0,-1059.0,-1050.0,Z
2.33,1.79,1.78,3.2300000000000004,3.03,9708.0,13108.0,5832.0,-538.0,-750.0,-984.0,Z
2.26,1.78,1.8000000000000003,3.26,3.01,9424.0,13136.0,5196.0,-437.0,-542.0,-823.0,Z
2.28,1.8000000000000003,1.81,3.2199999999999998,2.97,9268.0,13188.0,5424.0,-358.0,-404.0,-777.0,Z
2.3,1.76,1.78,3.26,3.0,8900.0,13424.0,5028.0,-375.0,-412.0,-845.0,Z
2.31,1.82,1.78,3.27,3.03,9076.0,13236.0,4960.0,-429.0,-440.0,-972.0,Z
2.3,1.81,1.7000000000000002,3.06,3.0,9076.0,13300.0,4752.0,-384.0,-241.0,-955.0,Z
2.27,1.81,1.72,3.25,2.98,9084.0,13224.0,4800.0,-155.0,-31.0,-951.0,Z
2.28,1.8399999999999999,1.72,3.2400000000000007,3.02,9248.0,13268.0,4864.0,-47.0,-52.0,-860.0,Z
2.3,1.81,1.73,3.2300000000000004,3.03,9568.0,13212.0,5040.0,-131.0,-466.0,-624.0,Z
2.24,1.79,1.7399999999999998,3.2400000000000007,3.02,9044.0,13444.0,5104.0,57.0,82.0,-249.0,Z
2.27,1.79,1.78,3.2400000000000007,3.02,9032.0,13380.0,4744.0,-140.0,-355.0,-553.0,Z
2.27,1.82,1.8000000000000003,3.2400000000000007,3.03,9372.0,13248.0,4808.0,92.0,148.0,-551.0,Z
2.29,1.8000000000000003,1.78,3.25,3.02,9284.0,13328.0,4568.0,90.0,373.0,-520.0,Z
2.27,1.78,1.81,3.25,3.02,9344.0,13200.0,4588.0,12.0,136.0,-558.0,Z
2.27,1.81,1.72,3.26,2.99,9368.0,13144.0,4468.0,211.0,530.0,-412.0,Z
2.29,1.79,1.76,3.25,3.02,9280.0,13388.0,4492.0,126.0,180.0,-265.0,Z
2.29,1.8799999999999997,1.72,3.26,3.02,9332.0,13316.0,4452.0,71.0,-82.0,-140.0,Z
2.27,1.79,1.8000000000000003,3.26,3.02,9072.0,13264.0,4168.0,-109.0,-663.0,-114.0,Z
2.27,1.81,1.72,3.2400000000000007,2.99,9120.0,13284.0,4252.0,33.0,-580.0,-76.0,Z
2.3,1.78,1.78,3.2400000000000007,3.03,9256.0,13404.0,4488.0,32.0,-440.0,-187.0,Z
2.27,1.77,1.81,3.11,2.97,9584.0,13292.0,4320.0,-218.0,-688.0,-302.0,Z
2.26,1.82,1.7000000000000002,3.2400000000000007,3.04,9696.0,13168.0,4672.0,62.0,383.0,-69.0,Z
2.27,1.7500000000000002,1.71,3.25,3.03,9512.0,13352.0,4292.0,-289.0,-251.0,-147.0,Z
2.29,1.7500000000000002,1.81,3.2199999999999998,2.98,9416.0,13296.0,4388.0,-124.0,240.0,100.0,Z
2.27,1.81,1.76,3.2400000000000007,2.98,9204.0,13224.0,4008.0,-400.0,-294.0,135.0,Z
2.24,1.8000000000000003,1.81,3.0,3.03,9248.0,13300.0,4256.0,-505.0,-475.0,99.0,Z
2.35,1.8000000000000003,1.81,3.2099999999999995,2.99,9356.0,13328.0,4124.0,-500.0,-560.0,109.0,Z
2.27,1.79,1.8000000000000003,3.26,3.03,9476.0,13368.0,4124.0,-561.0,-695.0,-11.0,Z
2.27,1.7500000000000002,1.8000000000000003,3.2199999999999998,3.04,9456.0,13268.0,4364.0,-428.0,-216.0,-17.0,Z
2.29,1.8399999999999999,1.81,3.2300000000000004,2.98,9488.0,13324.0,4792.0,-592.0,-232.0,-167.0,Z
2.28,1.81,1.79,3.25,2.99,9220.0,13364.0,4448.0,-578.0,81.0,-231.0,Z
2.27,1.81,1.79,3.2400000000000007,3.03,9480.0,13264.0,4536.0,-708.0,-143.0,-329.0,Z
2.28,1.77,1.81,3.09,3.02,9300.0,13196.0,4656.0,-464.0,654.0,-225.0,Z
2.27,1.8000000000000003,1.77,3.2400000000000007,3.02,9016.0,13196.0,4744.0,-543.0,264.0,-261.0,Z
2.29,1.79,1.81,3.2,3.04,9148.0,13072.0,4696.0,-518.0,75.0,-334.0,Z
2.27,1.81,1.81,3.26,3.03,9068.0,13172.0,4456.0,-426.0,61.0,-324.0,Z
2.27,1.81,1.7500000000000002,3.17,3.03,9172.0,13180.0,4544.0,-411.0,-51.0,-318.0,Z
2.27,1.79,1.8000000000000003,3.25,3.02,9440.0,13260.0,4696.0,-338.0,64.0,-279.0,Z
2.31,1.81,1.71,3.26,3.01,9260.0,13372.0,4868.0,-296.0,39.0,-229.0,Z
2.27,1.78,1.71,3.2199999999999998,3.03,9312.0,13244.0,4604.0,-342.0,-107.0,-245.0,Z
2.25,1.8000000000000003,1.72,3.26,2.99,9592.0,13264.0,4768.0,-228.0,161.0,-57.0,Z
2.29,1.78,1.8000000000000003,3.18,3.01,9256.0,13284.0,4604.0,-196.0,230.0,-8.0,Z
2.3,1.81,1.79,3.26,3.01,9300.0,13176.0,4496.0,-241.0,-289.0,-124.0,Z
2.27,1.81,1.79,3.25,3.03,9292.0,13260.0,4556.0,-13.0,-14.0,-178.0,Z
2.27,1.77,1.81,3.25,2.98,9436.0,13300.0,4376.0,-58.0,-242.0,-323.0,Z
2.27,1.7500000000000002,1.81,3.2099999999999995,3.04,9556.0,13284.0,4432.0,21.0,-139.0,-278.0,Z
2.25,1.7399999999999998,1.81,3.2199999999999998,3.03,9592.0,13320.0,4456.0,-255.0,-784.0,-513.0,Z
2.28,1.76,1.78,3.25,3.02,9936.0,13304.0,4632.0,23.0,125.0,-345.0,Z
2.23,1.81,1.77,3.2400000000000007,3.04,9828.0,13316.0,4556.0,-203.0,-156.0,-402.0,Z
